Folder: NIST_SRSW_Data/N2_REF_ISOTHERMS/AIF (part 2)

File: n2_irmof1_350K.aif
data_N2_IRMOF1_350K
_exptl_date 2023-08-09
_exptl_temperature 350
_adsnt_material_id IRMOF-1
_simltn_adsorbent_filename 'data.IRMOF1_mCBAC_rep111'
_units_temperature K
_units_fugacity BAR
_units_pressure BAR
_units_loading MOL-PER-KiloGM
_units_qst KiloJ-PER-MOL
_exptl_isotherm_type absolute
_exptl_adsorptive_name 'Nitrogen'
_simltn_forcefield_adsorptive 'TraPPE N2; 12ang linear-force shift'
_simltn_forcefield_adsorbent 'see adsorbent file'

loop_
_adsorp_fugacity
_adsorp_pressure
_adsorp_amount
_adsorp_amount_uncertainty
_adsorp_qst
_adsorp_qst_uncertainty
4.864e-02   4.864e-02   5.204e-03   7.858e-05   7.857e+00   8.238e-03
5.621e-02   5.621e-02   6.014e-03   9.089e-05   7.857e+00   8.192e-03
6.496e-02   6.496e-02   6.949e-03   1.051e-04   7.857e+00   8.140e-03
7.507e-02   7.507e-02   8.030e-03   1.216e-04   7.857e+00   8.080e-03
8.676e-02   8.676e-02   9.278e-03   1.407e-04   7.858e+00   8.011e-03
1.003e-01   1.003e-01   1.072e-02   1.629e-04   7.858e+00   7.933e-03
1.159e-01   1.159e-01   1.239e-02   1.885e-04   7.858e+00   7.843e-03
1.339e-01   1.339e-01   1.431e-02   2.183e-04   7.858e+00   7.740e-03
1.548e-01   1.548e-01   1.654e-02   2.528e-04   7.858e+00   7.623e-03
1.789e-01   1.789e-01   1.911e-02   2.928e-04   7.858e+00   7.490e-03
2.067e-01   2.067e-01   2.207e-02   3.392e-04   7.859e+00   7.340e-03
2.389e-01   2.389e-01   2.550e-02   3.931e-04   7.859e+00   7.169e-03
2.761e-01   2.761e-01   2.946e-02   4.556e-04   7.859e+00   6.976e-03
3.191e-01   3.190e-01   3.402e-02   5.281e-04   7.860e+00   6.760e-03
3.687e-01   3.687e-01   3.930e-02   6.123e-04   7.860e+00   6.518e-03
4.261e-01   4.261e-01   4.539e-02   7.098e-04   7.861e+00   6.248e-03
4.925e-01   4.924e-01   5.242e-02   8.227e-04   7.861e+00   5.950e-03
5.691e-01   5.690e-01   6.053e-02   9.532e-04   7.862e+00   5.623e-03
6.577e-01   6.576e-01   6.989e-02   1.104e-03   7.863e+00   5.268e-03
7.601e-01   7.600e-01   8.069e-02   1.276e-03   7.864e+00   4.887e-03
8.785e-01   8.782e-01   9.315e-02   1.474e-03   7.865e+00   4.485e-03
1.015e+00   1.015e+00   1.075e-01   1.698e-03   7.866e+00   4.069e-03
1.173e+00   1.173e+00   1.241e-01   1.950e-03   7.868e+00   3.650e-03
1.356e+00   1.355e+00   1.432e-01   2.232e-03   7.869e+00   3.243e-03
1.567e+00   1.566e+00   1.653e-01   2.542e-03   7.871e+00   2.858e-03
1.811e+00   1.810e+00   1.907e-01   2.876e-03   7.874e+00   2.503e-03
2.093e+00   2.091e+00   2.200e-01   3.227e-03   7.876e+00   2.167e-03
2.419e+00   2.417e+00   2.538e-01   3.582e-03   7.879e+00   1.828e-03
2.795e+00   2.793e+00   2.928e-01   3.919e-03   7.883e+00   1.470e-03
3.231e+00   3.227e+00   3.378e-01   4.212e-03   7.887e+00   1.158e-03
3.734e+00   3.728e+00   3.897e-01   4.424e-03   7.892e+00   1.161e-03
4.315e+00   4.308e+00   4.495e-01   4.520e-03   7.897e+00   1.659e-03
4.987e+00   4.977e+00   5.184e-01   4.476e-03   7.904e+00   2.398e-03
5.763e+00   5.750e+00   5.977e-01   4.305e-03   7.912e+00   3.111e-03
6.660e+00   6.643e+00   6.886e-01   4.078e-03   7.921e+00   3.609e-03
7.697e+00   7.674e+00   7.929e-01   3.903e-03   7.931e+00   3.771e-03
8.895e+00   8.865e+00   9.121e-01   3.819e-03   7.943e+00   3.555e-03
1.028e+01   1.024e+01   1.048e+00   3.728e-03   7.957e+00   2.991e-03
1.188e+01   1.183e+01   1.203e+00   3.576e-03   7.972e+00   2.218e-03
1.373e+01   1.366e+01   1.380e+00   3.637e-03   7.990e+00   1.863e-03
1.587e+01   1.577e+01   1.581e+00   4.252e-03   8.009e+00   2.748e-03
1.834e+01   1.821e+01   1.808e+00   5.311e-03   8.031e+00   4.002e-03
2.119e+01   2.102e+01   2.065e+00   6.767e-03   8.055e+00   4.907e-03
2.449e+01   2.427e+01   2.355e+00   8.818e-03   8.083e+00   5.141e-03
2.831e+01   2.801e+01   2.681e+00   1.111e-02   8.117e+00   3.614e-03
3.271e+01   3.231e+01   3.046e+00   1.224e-02   8.156e+00   1.694e-03
3.780e+01   3.727e+01   3.451e+00   1.035e-02   8.200e+00   6.440e-03
4.369e+01   4.297e+01   3.897e+00   5.171e-03   8.247e+00   8.488e-03
5.049e+01   4.953e+01   4.387e+00   3.039e-03   8.297e+00   6.459e-03
5.835e+01   5.705e+01   4.921e+00   7.561e-03   8.354e+00   2.385e-03
6.744e+01   6.569e+01   5.500e+00   8.713e-03   8.417e+00   4.476e-03
7.794e+01   7.558e+01   6.123e+00   6.405e-03   8.487e+00   7.364e-03
9.007e+01   8.690e+01   6.789e+00   6.379e-03   8.564e+00   6.092e-03
1.041e+02   9.981e+01   7.496e+00   9.218e-03   8.648e+00   8.600e-03
1.203e+02   1.145e+02   8.239e+00   7.735e-03   8.734e+00   7.948e-03
1.390e+02   1.312e+02   9.013e+00   7.903e-03   8.826e+00   4.950e-03
1.607e+02   1.502e+02   9.812e+00   1.245e-02   8.926e+00   8.819e-03
1.857e+02   1.715e+02   1.063e+01   1.513e-02   9.030e+00   7.934e-03
2.146e+02   1.955e+02   1.146e+01   1.295e-02   9.140e+00   5.024e-03
2.480e+02   2.223e+02   1.230e+01   9.630e-03   9.253e+00   5.746e-03
2.866e+02   2.521e+02   1.314e+01   6.752e-03   9.360e+00   8.048e-03
3.312e+02   2.852e+02   1.397e+01   4.155e-03   9.460e+00   7.188e-03
3.828e+02   3.215e+02   1.480e+01   6.493e-03   9.559e+00   1.181e-02
4.424e+02   3.612e+02   1.562e+01   5.767e-03   9.662e+00   1.059e-02
5.113e+02   4.043e+02   1.642e+01   6.727e-03   9.766e+00   2.199e-03
5.909e+02   4.509e+02   1.721e+01   9.001e-03   9.861e+00   1.500e-02
6.828e+02   5.009e+02   1.797e+01   1.029e-02   9.945e+00   2.145e-02
7.892e+02   5.544e+02   1.871e+01   1.398e-02   1.002e+01   2.746e-02
9.120e+02   6.111e+02   1.943e+01   1.625e-02   1.010e+01   2.219e-02
1.054e+03   6.710e+02   2.012e+01   1.560e-02   1.018e+01   1.800e-02
1.218e+03   7.341e+02   2.080e+01   1.348e-02   1.024e+01   4.534e-02
1.408e+03   8.002e+02   2.146e+01   1.061e-02   1.028e+01   5.797e-02
1.627e+03   8.692e+02   2.209e+01   7.046e-03   1.031e+01   4.476e-02
1.880e+03   9.409e+02   2.270e+01   5.659e-03   1.033e+01   3.033e-02
2.173e+03   1.015e+03   2.329e+01   9.912e-03   1.035e+01   4.304e-02
2.511e+03   1.092e+03   2.387e+01   1.234e-02   1.039e+01   3.596e-02
2.902e+03   1.172e+03   2.443e+01   1.309e-02   1.044e+01   7.966e-03
3.354e+03   1.254e+03   2.497e+01   1.351e-02   1.046e+01   3.140e-02
3.876e+03   1.338e+03   2.550e+01   1.300e-02   1.043e+01   4.619e-02
4.480e+03   1.424e+03   2.600e+01   9.856e-03   1.036e+01   4.350e-02
5.177e+03   1.513e+03   2.649e+01   4.274e-03   1.030e+01   6.406e-02
5.983e+03   1.603e+03   2.697e+01   2.552e-03   1.025e+01   7.321e-02
6.914e+03   1.696e+03   2.743e+01   5.788e-03   1.021e+01   5.069e-02
7.991e+03   1.790e+03   2.788e+01   8.189e-03   1.015e+01   4.372e-02
9.235e+03   1.886e+03   2.832e+01   9.087e-03   1.010e+01   5.191e-02
1.067e+04   1.984e+03   2.875e+01   1.043e-02   1.003e+01   4.639e-02
1.233e+04   2.084e+03   2.917e+01   1.531e-02   9.962e+00   2.143e-02
1.425e+04   2.185e+03   2.958e+01   1.976e-02   9.887e+00   7.557e-02
1.647e+04   2.288e+03   2.998e+01   2.037e-02   9.818e+00   9.037e-02
1.904e+04   2.392e+03   3.038e+01   1.968e-02   9.752e+00   7.388e-02
2.200e+04   2.498e+03   3.076e+01   2.121e-02   9.670e+00   6.079e-02
2.543e+04   2.605e+03   3.113e+01   2.333e-02   9.565e+00   1.825e-02
2.939e+04   2.714e+03   3.149e+01   2.359e-02   9.449e+00   4.514e-02
3.396e+04   2.824e+03   3.185e+01   2.163e-02   9.342e+00   8.498e-02
3.925e+04   2.935e+03   3.219e+01   1.916e-02   9.249e+00   8.065e-02
4.536e+04   3.048e+03   3.253e+01   1.744e-02   9.156e+00   4.875e-02
5.242e+04   3.162e+03   3.287e+01   1.545e-02   9.052e+00   8.015e-02
6.058e+04   3.277e+03   3.320e+01   1.469e-02   8.937e+00   9.681e-02
7.001e+04   3.393e+03   3.353e+01   1.892e-02   8.825e+00   4.661e-02
8.091e+04   3.511e+03   3.385e+01   2.696e-02   8.722e+00   4.174e-02

File: n2_zif8_300K.aif
data_N2_ZIF8_300K
_exptl_date
_exptl_temperature 300
_adsnt_material_id ZIF-8
_simltn_adsorbent_filename 'data.ZIF8_Snurr_rep222'
_units_temperature K
_units_fugacity BAR
_units_pressure BAR
_units_loading MOL-PER-KiloGM
_units_qst KiloJ-PER-MOL
_exptl_isotherm_type absolute
_exptl_adsorptive_name 'Nitrogen'
_simltn_forcefield_adsorptive 'TraPPE N2; 12ang linear-force shift'
_simltn_forcefield_adsorbent 'see adsorbent file'

loop_
_adsorp_fugacity
_adsorp_pressure
_adsorp_amount
_adsorp_amount_uncertainty
_adsorp_qst
_adsorp_qst_uncertainty
7.478e-03   7.480e-03   9.575e-04   2.397e-05   1.019e+01   4.358e-03
8.802e-03   8.804e-03   1.127e-03   2.824e-05   1.019e+01   4.363e-03
1.036e-02   1.036e-02   1.326e-03   3.327e-05   1.019e+01   4.370e-03
1.219e-02   1.220e-02   1.561e-03   3.920e-05   1.019e+01   4.377e-03
1.435e-02   1.435e-02   1.837e-03   4.620e-05   1.019e+01   4.384e-03
1.689e-02   1.689e-02   2.162e-03   5.447e-05   1.019e+01   4.393e-03
1.988e-02   1.988e-02   2.544e-03   6.425e-05   1.019e+01   4.402e-03
2.339e-02   2.340e-02   2.994e-03   7.582e-05   1.019e+01   4.412e-03
2.753e-02   2.754e-02   3.524e-03   8.952e-05   1.019e+01   4.422e-03
3.240e-02   3.241e-02   4.147e-03   1.058e-04   1.019e+01   4.433e-03
3.814e-02   3.815e-02   4.881e-03   1.251e-04   1.019e+01   4.442e-03
4.488e-02   4.490e-02   5.744e-03   1.480e-04   1.019e+01   4.450e-03
5.283e-02   5.284e-02   6.759e-03   1.754e-04   1.019e+01   4.454e-03
6.217e-02   6.219e-02   7.954e-03   2.082e-04   1.019e+01   4.454e-03
7.317e-02   7.319e-02   9.360e-03   2.473e-04   1.019e+01   4.446e-03
8.612e-02   8.614e-02   1.101e-02   2.943e-04   1.019e+01   4.428e-03
1.014e-01   1.014e-01   1.296e-02   3.506e-04   1.019e+01   4.394e-03
1.193e-01   1.193e-01   1.525e-02   4.181e-04   1.019e+01   4.339e-03
1.404e-01   1.404e-01   1.795e-02   4.988e-04   1.019e+01   4.259e-03
1.652e-01   1.653e-01   2.112e-02   5.948e-04   1.019e+01   4.144e-03
1.945e-01   1.945e-01   2.485e-02   7.079e-04   1.019e+01   3.989e-03
2.289e-01   2.289e-01   2.924e-02   8.396e-04   1.019e+01   3.787e-03
2.694e-01   2.694e-01   3.441e-02   9.902e-04   1.019e+01   3.533e-03
3.171e-01   3.171e-01   4.049e-02   1.158e-03   1.019e+01   3.233e-03
3.732e-01   3.732e-01   4.763e-02   1.340e-03   1.020e+01   2.901e-03
4.392e-01   4.392e-01   5.604e-02   1.528e-03   1.020e+01   2.584e-03
5.169e-01   5.169e-01   6.591e-02   1.714e-03   1.020e+01   2.378e-03
6.083e-01   6.084e-01   7.751e-02   1.884e-03   1.020e+01   2.425e-03
7.160e-01   7.160e-01   9.112e-02   2.026e-03   1.021e+01   2.813e-03
8.427e-01   8.426e-01   1.071e-01   2.127e-03   1.021e+01   3.479e-03
9.918e-01   9.917e-01   1.258e-01   2.177e-03   1.022e+01   4.259e-03
1.167e+00   1.167e+00   1.477e-01   2.173e-03   1.023e+01   4.953e-03
1.374e+00   1.373e+00   1.733e-01   2.123e-03   1.023e+01   5.365e-03
1.617e+00   1.616e+00   2.033e-01   2.053e-03   1.024e+01   5.423e-03
1.903e+00   1.902e+00   2.383e-01   2.016e-03   1.025e+01   5.360e-03
2.240e+00   2.239e+00   2.792e-01   2.047e-03   1.027e+01   5.622e-03
2.636e+00   2.635e+00   3.268e-01   2.106e-03   1.028e+01   6.100e-03
3.102e+00   3.100e+00   3.821e-01   2.087e-03   1.029e+01   5.956e-03
3.651e+00   3.649e+00   4.462e-01   1.924e-03   1.031e+01   4.585e-03
4.297e+00   4.294e+00   5.203e-01   1.639e-03   1.034e+01   2.425e-03
5.058e+00   5.053e+00   6.059e-01   1.204e-03   1.036e+01   2.206e-03
5.952e+00   5.946e+00   7.045e-01   5.898e-04   1.040e+01   4.561e-03
7.006e+00   6.997e+00   8.177e-01   2.803e-04   1.043e+01   6.467e-03
8.245e+00   8.233e+00   9.468e-01   4.068e-04   1.047e+01   6.314e-03
9.704e+00   9.688e+00   1.093e+00   1.322e-03   1.051e+01   3.863e-03
1.142e+01   1.140e+01   1.258e+00   2.499e-03   1.056e+01   3.851e-03
1.344e+01   1.341e+01   1.442e+00   2.501e-03   1.062e+01   3.360e-03
1.582e+01   1.578e+01   1.647e+00   1.890e-03   1.068e+01   4.823e-03
1.862e+01   1.856e+01   1.872e+00   2.717e-03   1.075e+01   5.914e-03
2.191e+01   2.184e+01   2.118e+00   2.739e-03   1.083e+01   5.877e-03
2.579e+01   2.568e+01   2.383e+00   2.183e-03   1.092e+01   3.926e-03
3.035e+01   3.020e+01   2.668e+00   2.844e-03   1.101e+01   5.629e-03
3.573e+01   3.551e+01   2.970e+00   3.608e-03   1.111e+01   4.154e-03
4.205e+01   4.174e+01   3.286e+00   2.904e-03   1.121e+01   9.217e-03
4.949e+01   4.904e+01   3.613e+00   2.300e-03   1.131e+01   1.708e-02
5.824e+01   5.760e+01   3.948e+00   2.891e-03   1.142e+01   5.989e-03
6.855e+01   6.762e+01   4.287e+00   7.960e-04   1.152e+01   1.423e-02
8.068e+01   7.932e+01   4.630e+00   2.124e-03   1.162e+01   2.314e-02
9.495e+01   9.295e+01   4.974e+00   3.239e-03   1.175e+01   1.100e-02
1.117e+02   1.088e+02   5.318e+00   4.058e-03   1.187e+01   1.663e-02
1.315e+02   1.272e+02   5.659e+00   3.121e-03   1.197e+01   7.837e-03
1.548e+02   1.484e+02   5.994e+00   2.912e-03   1.206e+01   6.691e-03
1.822e+02   1.727e+02   6.324e+00   4.731e-03   1.218e+01   1.547e-02
2.144e+02   2.004e+02   6.651e+00   4.618e-03   1.232e+01   2.003e-02
2.524e+02   2.318e+02   6.972e+00   4.088e-03   1.241e+01   7.583e-03
2.970e+02   2.671e+02   7.286e+00   4.715e-03   1.245e+01   2.549e-02
3.496e+02   3.064e+02   7.593e+00   3.148e-03   1.249e+01   2.829e-02
4.114e+02   3.497e+02   7.892e+00   1.545e-03   1.254e+01   1.736e-02
4.842e+02   3.971e+02   8.186e+00   2.711e-03   1.262e+01   3.138e-02
5.699e+02   4.484e+02   8.474e+00   4.755e-03   1.267e+01   1.170e-02
6.707e+02   5.036e+02   8.756e+00   6.558e-03   1.269e+01   3.988e-02
7.894e+02   5.625e+02   9.029e+00   6.055e-03   1.271e+01   3.747e-02
9.290e+02   6.250e+02   9.294e+00   5.381e-03   1.273e+01   5.717e-02
1.093e+03   6.909e+02   9.551e+00   4.672e-03   1.273e+01   8.284e-02
1.287e+03   7.600e+02   9.801e+00   4.825e-03   1.273e+01   4.936e-02
1.515e+03   8.321e+02   1.004e+01   7.331e-03   1.274e+01   9.823e-02
1.783e+03   9.071e+02   1.028e+01   7.495e-03   1.272e+01   3.658e-02
2.098e+03   9.849e+02   1.051e+01   5.592e-03   1.269e+01   6.780e-02
2.469e+03   1.065e+03   1.073e+01   3.747e-03   1.266e+01   4.389e-02
2.906e+03   1.148e+03   1.094e+01   1.705e-03   1.261e+01   5.252e-02
3.420e+03   1.233e+03   1.114e+01   2.832e-03   1.253e+01   8.075e-02
4.025e+03   1.321e+03   1.134e+01   6.867e-03   1.245e+01   1.056e-01
4.738e+03   1.410e+03   1.152e+01   1.036e-02   1.238e+01   1.099e-01
5.576e+03   1.502e+03   1.171e+01   1.135e-02   1.229e+01   2.277e-02
6.563e+03   1.595e+03   1.189e+01   9.039e-03   1.218e+01   9.442e-02
7.724e+03   1.691e+03   1.206e+01   5.718e-03   1.207e+01   1.589e-01
9.090e+03   1.788e+03   1.223e+01   4.510e-03   1.193e+01   1.248e-01
1.070e+04   1.887e+03   1.239e+01   5.048e-03   1.174e+01   8.007e-02
1.259e+04   1.987e+03   1.255e+01   3.501e-03   1.156e+01   1.421e-01
1.482e+04   2.090e+03   1.270e+01   1.917e-03   1.143e+01   1.504e-01
1.744e+04   2.193e+03   1.285e+01   4.384e-03   1.129e+01   1.186e-01
2.053e+04   2.299e+03   1.300e+01   4.905e-03   1.110e+01   5.308e-02
2.416e+04   2.405e+03   1.315e+01   2.475e-03   1.089e+01   5.819e-02
2.844e+04   2.513e+03   1.329e+01   5.382e-03   1.070e+01   1.471e-01
3.347e+04   2.623e+03   1.342e+01   1.172e-02   1.052e+01   2.205e-01
3.939e+04   2.733e+03   1.356e+01   1.539e-02   1.035e+01   2.613e-01
4.636e+04   2.845e+03   1.369e+01   1.264e-02   1.019e+01   1.810e-01
5.456e+04   2.959e+03   1.382e+01   4.110e-03   1.005e+01   1.334e-01
6.421e+04   3.073e+03   1.395e+01   1.042e-02   9.873e+00   3.384e-01
7.557e+04   3.189e+03   1.408e+01   1.844e-02   9.597e+00   3.858e-01

File: n2_zif8_350K.aif
data_N2_ZIF8_350K
_exptl_date
_exptl_temperature 350
_adsnt_material_id ZIF-8
_adsnt_filename 'data.ZIF8_Snurr_rep222'
_units_temperature K
_units_fugacity BAR
_units_pressure BAR
_units_loading MOL-PER-KiloGM
_units_qst KiloJ-PER-MOL
_exptl_isotherm_type absolute
_exptl_adsorptive_name 'Nitrogen'
_forcefield_adsorptive 'TraPPE N2; 12ang linear-force shift'
_forcefield_adsnt 'see adsorbent file'

loop_
_adsorp_fugacity
_adsorp_pressure
_adsorp_amount
_adsorp_amount_uncertainty
_adsorp_qst
_adsorp_qst_uncertainty
4.864e-02   4.864e-02   3.464e-03   5.315e-05   1.033e+01   1.038e-02
5.621e-02   5.621e-02   4.004e-03   6.057e-05   1.033e+01   1.026e-02
6.496e-02   6.496e-02   4.627e-03   6.888e-05   1.033e+01   1.012e-02
7.507e-02   7.507e-02   5.347e-03   7.815e-05   1.033e+01   9.973e-03
8.676e-02   8.676e-02   6.179e-03   8.844e-05   1.033e+01   9.808e-03
1.003e-01   1.003e-01   7.140e-03   9.978e-05   1.033e+01   9.629e-03
1.159e-01   1.159e-01   8.251e-03   1.122e-04   1.033e+01   9.435e-03
1.339e-01   1.339e-01   9.535e-03   1.258e-04   1.033e+01   9.229e-03
1.548e-01   1.548e-01   1.102e-02   1.405e-04   1.033e+01   9.010e-03
1.789e-01   1.789e-01   1.273e-02   1.563e-04   1.033e+01   8.781e-03
2.067e-01   2.067e-01   1.471e-02   1.733e-04   1.033e+01   8.541e-03
2.389e-01   2.389e-01   1.700e-02   1.916e-04   1.033e+01   8.291e-03
2.761e-01   2.761e-01   1.964e-02   2.117e-04   1.033e+01   8.028e-03
3.191e-01   3.190e-01   2.269e-02   2.340e-04   1.033e+01   7.746e-03
3.687e-01   3.687e-01   2.622e-02   2.599e-04   1.033e+01   7.435e-03
4.261e-01   4.261e-01   3.029e-02   2.912e-04   1.033e+01   7.077e-03
4.925e-01   4.924e-01   3.499e-02   3.306e-04   1.033e+01   6.651e-03
5.691e-01   5.690e-01   4.042e-02   3.816e-04   1.034e+01   6.129e-03
6.577e-01   6.576e-01   4.669e-02   4.481e-04   1.034e+01   5.482e-03
7.601e-01   7.600e-01   5.393e-02   5.333e-04   1.034e+01   4.689e-03
8.785e-01   8.782e-01   6.227e-02   6.392e-04   1.034e+01   3.743e-03
1.015e+00   1.015e+00   7.190e-02   7.649e-04   1.035e+01   2.670e-03
1.173e+00   1.173e+00   8.301e-02   9.060e-04   1.035e+01   1.580e-03
1.356e+00   1.355e+00   9.581e-02   1.052e-03   1.035e+01   9.706e-04
1.567e+00   1.566e+00   1.106e-01   1.189e-03   1.036e+01   1.558e-03
1.811e+00   1.810e+00   1.276e-01   1.296e-03   1.036e+01   2.426e-03
2.093e+00   2.091e+00   1.471e-01   1.354e-03   1.037e+01   3.127e-03
2.419e+00   2.417e+00   1.696e-01   1.348e-03   1.038e+01   3.642e-03
2.795e+00   2.793e+00   1.955e-01   1.279e-03   1.039e+01   4.100e-03
3.231e+00   3.227e+00   2.251e-01   1.166e-03   1.039e+01   4.598e-03
3.734e+00   3.728e+00   2.591e-01   1.041e-03   1.040e+01   4.993e-03
4.315e+00   4.308e+00   2.978e-01   9.531e-04   1.041e+01   4.951e-03
4.987e+00   4.977e+00   3.420e-01   9.664e-04   1.043e+01   4.393e-03
5.763e+00   5.750e+00   3.923e-01   1.155e-03   1.044e+01   4.408e-03
6.660e+00   6.643e+00   4.496e-01   1.542e-03   1.046e+01   6.272e-03
7.697e+00   7.674e+00   5.147e-01   2.058e-03   1.048e+01   8.341e-03
8.895e+00   8.865e+00   5.885e-01   2.579e-03   1.050e+01   8.623e-03
1.028e+01   1.024e+01   6.722e-01   2.993e-03   1.053e+01   7.165e-03
1.188e+01   1.183e+01   7.667e-01   3.217e-03   1.056e+01   6.432e-03
1.373e+01   1.366e+01   8.727e-01   3.165e-03   1.060e+01   7.587e-03
1.587e+01   1.577e+01   9.909e-01   2.762e-03   1.064e+01   1.008e-02
1.834e+01   1.821e+01   1.122e+00   1.926e-03   1.068e+01   1.178e-02
2.119e+01   2.102e+01   1.267e+00   6.460e-04   1.072e+01   9.937e-03
2.449e+01   2.427e+01   1.428e+00   9.067e-04   1.077e+01   4.914e-03
2.831e+01   2.801e+01   1.604e+00   1.539e-03   1.083e+01   2.697e-03
3.271e+01   3.231e+01   1.794e+00   1.769e-03   1.089e+01   4.115e-03
3.780e+01   3.727e+01   1.999e+00   2.190e-03   1.095e+01   2.964e-03
4.369e+01   4.297e+01   2.220e+00   1.939e-03   1.102e+01   3.229e-03
5.049e+01   4.953e+01   2.454e+00   1.306e-03   1.109e+01   2.424e-03
5.835e+01   5.705e+01   2.702e+00   3.487e-04   1.118e+01   1.973e-03
6.744e+01   6.569e+01   2.961e+00   1.541e-03   1.126e+01   1.317e-03
7.794e+01   7.558e+01   3.230e+00   1.864e-03   1.135e+01   5.156e-03
9.007e+01   8.690e+01   3.507e+00   2.111e-03   1.144e+01   3.837e-03
1.041e+02   9.981e+01   3.791e+00   2.321e-03   1.153e+01   2.635e-03
1.203e+02   1.145e+02   4.080e+00   2.407e-03   1.161e+01   4.285e-03
1.390e+02   1.312e+02   4.373e+00   2.717e-03   1.169e+01   8.549e-03
1.607e+02   1.502e+02   4.668e+00   2.783e-03   1.178e+01   1.800e-03
1.857e+02   1.715e+02   4.963e+00   2.091e-03   1.187e+01   5.733e-03
2.146e+02   1.955e+02   5.256e+00   3.063e-03   1.195e+01   1.916e-02
2.480e+02   2.223e+02   5.548e+00   5.354e-03   1.202e+01   1.535e-02
2.866e+02   2.521e+02   5.839e+00   5.721e-03   1.211e+01   2.850e-02
3.312e+02   2.852e+02   6.126e+00   4.117e-03   1.220e+01   2.664e-02
3.828e+02   3.215e+02   6.411e+00   2.709e-03   1.227e+01   1.262e-02
4.424e+02   3.612e+02   6.691e+00   1.903e-03   1.232e+01   1.784e-02
5.113e+02   4.043e+02   6.967e+00   1.110e-03   1.239e+01   1.921e-02
5.909e+02   4.509e+02   7.240e+00   9.768e-04   1.250e+01   1.832e-02
6.828e+02   5.009e+02   7.510e+00   1.607e-03   1.256e+01   2.379e-02
7.892e+02   5.544e+02   7.774e+00   1.328e-03   1.254e+01   4.144e-02
9.120e+02   6.111e+02   8.033e+00   2.249e-03   1.254e+01   6.884e-02
1.054e+03   6.710e+02   8.289e+00   3.779e-03   1.258e+01   3.591e-02
1.218e+03   7.341e+02   8.541e+00   5.276e-03   1.261e+01   3.570e-02
1.408e+03   8.002e+02   8.787e+00   7.210e-03   1.260e+01   6.372e-02
1.627e+03   8.692e+02   9.027e+00   7.533e-03   1.259e+01   7.003e-02
1.880e+03   9.409e+02   9.262e+00   5.485e-03   1.258e+01   6.315e-02
2.173e+03   1.015e+03   9.491e+00   4.425e-03   1.258e+01   5.312e-02
2.511e+03   1.092e+03   9.715e+00   4.854e-03   1.258e+01   5.185e-02
2.902e+03   1.172e+03   9.934e+00   3.664e-03   1.258e+01   2.965e-02
3.354e+03   1.254e+03   1.015e+01   3.759e-03   1.257e+01   5.021e-02
3.876e+03   1.338e+03   1.036e+01   4.506e-03   1.253e+01   7.121e-02
4.480e+03   1.424e+03   1.056e+01   3.798e-03   1.246e+01   7.563e-02
5.177e+03   1.513e+03   1.075e+01   3.016e-03   1.238e+01   6.034e-02
5.983e+03   1.603e+03   1.094e+01   1.904e-03   1.232e+01   3.766e-02
6.914e+03   1.696e+03   1.113e+01   4.062e-03   1.226e+01   3.112e-02
7.991e+03   1.790e+03   1.131e+01   6.507e-03   1.216e+01   6.607e-02
9.235e+03   1.886e+03   1.149e+01   7.486e-03   1.202e+01   1.247e-01
1.067e+04   1.984e+03   1.166e+01   9.142e-03   1.191e+01   1.101e-01
1.233e+04   2.084e+03   1.183e+01   1.134e-02   1.181e+01   1.208e-01
1.425e+04   2.185e+03   1.199e+01   1.213e-02   1.173e+01   1.543e-01
1.647e+04   2.288e+03   1.215e+01   9.810e-03   1.160e+01   9.418e-02
1.904e+04   2.392e+03   1.230e+01   5.411e-03   1.141e+01   6.559e-02
2.200e+04   2.498e+03   1.245e+01   4.027e-03   1.121e+01   2.051e-01
2.543e+04   2.605e+03   1.260e+01   5.990e-03   1.108e+01   2.643e-01
2.939e+04   2.714e+03   1.275e+01   7.570e-03   1.098e+01   2.147e-01
3.396e+04   2.824e+03   1.289e+01   7.387e-03   1.082e+01   1.818e-01
3.925e+04   2.935e+03   1.303e+01   6.413e-03   1.059e+01   1.252e-01
4.536e+04   3.048e+03   1.316e+01   7.182e-03   1.039e+01   4.245e-02
5.242e+04   3.162e+03   1.330e+01   9.255e-03   1.021e+01   1.164e-01
6.058e+04   3.277e+03   1.343e+01   1.019e-02   9.999e+00   1.750e-01
7.001e+04   3.393e+03   1.355e+01   9.515e-03   9.801e+00   2.092e-01
8.091e+04   3.511e+03   1.368e+01   8.465e-03   9.644e+00   2.073e-01