Folder: NIST_SRSW_Data/N2_REF_ISOTHERMS/AIF

File: n2_cubtc_300K.aif
data_N2_CuBTC_300K
_exptl_date
_exptl_temperature 300
_adsnt_material_id CuBTC
_simltn_adsorbent_filename 'data.CuBTC_CaleroIV_rep111'
_units_temperature K
_units_fugacity BAR
_units_pressure BAR
_units_loading MOL-PER-KiloGM
_units_qst KiloJ-PER-MOL
_exptl_isotherm_type absolute
_exptl_adsorptive_name 'Nitrogen'
_simltn_forcefield_adsorptive 'TraPPE N2; 12ang linear-force shift'
_simltn_forcefield_adsorbent 'see adsorbent file'

loop_
_adsorp_fugacity
_adsorp_pressure
_adsorp_amount
_adsorp_amount_uncertainty
_adsorp_qst
_adsorp_qst_uncertainty
7.478e-03   7.480e-03   1.867e-03   5.267e-05   1.286e+01   2.738e-02
8.802e-03   8.804e-03   2.198e-03   6.187e-05   1.286e+01   2.726e-02
1.036e-02   1.036e-02   2.586e-03   7.267e-05   1.286e+01   2.712e-02
1.219e-02   1.220e-02   3.044e-03   8.531e-05   1.286e+01   2.696e-02
1.435e-02   1.435e-02   3.582e-03   1.001e-04   1.286e+01   2.677e-02
1.689e-02   1.689e-02   4.215e-03   1.174e-04   1.286e+01   2.655e-02
1.988e-02   1.988e-02   4.960e-03   1.376e-04   1.286e+01   2.629e-02
2.339e-02   2.340e-02   5.837e-03   1.612e-04   1.285e+01   2.598e-02
2.753e-02   2.754e-02   6.868e-03   1.887e-04   1.285e+01   2.563e-02
3.240e-02   3.241e-02   8.081e-03   2.207e-04   1.285e+01   2.522e-02
3.814e-02   3.815e-02   9.508e-03   2.577e-04   1.285e+01   2.474e-02
4.488e-02   4.490e-02   1.119e-02   3.006e-04   1.284e+01   2.418e-02
5.283e-02   5.284e-02   1.316e-02   3.502e-04   1.284e+01   2.354e-02
6.217e-02   6.219e-02   1.548e-02   4.071e-04   1.284e+01   2.280e-02
7.317e-02   7.319e-02   1.821e-02   4.724e-04   1.283e+01   2.196e-02
8.612e-02   8.614e-02   2.142e-02   5.469e-04   1.282e+01   2.099e-02
1.014e-01   1.014e-01   2.519e-02   6.314e-04   1.282e+01   1.989e-02
1.193e-01   1.193e-01   2.962e-02   7.266e-04   1.281e+01   1.864e-02
1.404e-01   1.404e-01   3.482e-02   8.332e-04   1.280e+01   1.724e-02
1.652e-01   1.653e-01   4.092e-02   9.514e-04   1.279e+01   1.568e-02
1.945e-01   1.945e-01   4.808e-02   1.081e-03   1.277e+01   1.394e-02
2.289e-01   2.289e-01   5.648e-02   1.222e-03   1.276e+01   1.202e-02
2.694e-01   2.694e-01   6.632e-02   1.372e-03   1.274e+01   9.938e-03
3.171e-01   3.171e-01   7.784e-02   1.528e-03   1.272e+01   7.689e-03
3.732e-01   3.732e-01   9.131e-02   1.687e-03   1.270e+01   5.319e-03
4.392e-01   4.392e-01   1.071e-01   1.842e-03   1.267e+01   3.002e-03
5.169e-01   5.169e-01   1.254e-01   1.983e-03   1.264e+01   2.000e-03
6.083e-01   6.084e-01   1.469e-01   2.098e-03   1.260e+01   3.937e-03
7.160e-01   7.160e-01   1.718e-01   2.171e-03   1.256e+01   6.670e-03
8.427e-01   8.426e-01   2.008e-01   2.182e-03   1.251e+01   9.464e-03
9.918e-01   9.917e-01   2.345e-01   2.111e-03   1.246e+01   1.208e-02
1.167e+00   1.167e+00   2.736e-01   1.945e-03   1.239e+01   1.431e-02
1.374e+00   1.373e+00   3.187e-01   1.688e-03   1.233e+01   1.598e-02
1.617e+00   1.616e+00   3.709e-01   1.383e-03   1.225e+01   1.698e-02
1.903e+00   1.902e+00   4.310e-01   1.121e-03   1.216e+01   1.718e-02
2.240e+00   2.239e+00   5.001e-01   1.015e-03   1.206e+01   1.641e-02
2.636e+00   2.635e+00   5.793e-01   1.060e-03   1.196e+01   1.434e-02
3.102e+00   3.100e+00   6.698e-01   1.120e-03   1.184e+01   1.070e-02
3.651e+00   3.649e+00   7.730e-01   1.123e-03   1.172e+01   6.555e-03
4.297e+00   4.294e+00   8.901e-01   1.187e-03   1.159e+01   8.282e-03
5.058e+00   5.053e+00   1.023e+00   1.622e-03   1.146e+01   1.497e-02
5.952e+00   5.946e+00   1.172e+00   2.489e-03   1.133e+01   2.037e-02
7.006e+00   6.997e+00   1.341e+00   3.463e-03   1.120e+01   2.128e-02
8.245e+00   8.233e+00   1.530e+00   4.138e-03   1.108e+01   1.677e-02
9.704e+00   9.688e+00   1.742e+00   4.282e-03   1.097e+01   1.310e-02
1.142e+01   1.140e+01   1.979e+00   3.961e-03   1.088e+01   1.732e-02
1.344e+01   1.341e+01   2.241e+00   3.533e-03   1.079e+01   1.881e-02
1.582e+01   1.578e+01   2.533e+00   3.488e-03   1.072e+01   1.283e-02
1.862e+01   1.856e+01   2.857e+00   3.582e-03   1.068e+01   1.371e-02
2.191e+01   2.184e+01   3.214e+00   4.122e-03   1.066e+01   1.740e-02
2.579e+01   2.568e+01   3.604e+00   5.155e-03   1.066e+01   1.260e-02
3.035e+01   3.020e+01   4.025e+00   6.464e-03   1.067e+01   1.170e-02
3.573e+01   3.551e+01   4.478e+00   7.258e-03   1.071e+01   7.653e-03
4.205e+01   4.174e+01   4.961e+00   7.201e-03   1.077e+01   1.627e-02
4.949e+01   4.904e+01   5.471e+00   6.369e-03   1.085e+01   1.423e-02
5.824e+01   5.760e+01   6.004e+00   4.847e-03   1.092e+01   9.332e-03
6.855e+01   6.762e+01   6.552e+00   3.452e-03   1.101e+01   8.994e-03
8.068e+01   7.932e+01   7.114e+00   2.267e-03   1.112e+01   8.993e-03
9.495e+01   9.295e+01   7.686e+00   1.661e-03   1.125e+01   2.729e-02
1.117e+02   1.088e+02   8.261e+00   2.619e-03   1.137e+01   2.967e-02
1.315e+02   1.272e+02   8.832e+00   3.080e-03   1.149e+01   1.798e-02
1.548e+02   1.484e+02   9.397e+00   4.427e-03   1.158e+01   3.173e-02
1.822e+02   1.727e+02   9.953e+00   8.270e-03   1.169e+01   1.879e-02
2.144e+02   2.004e+02   1.050e+01   1.168e-02   1.183e+01   3.700e-02
2.524e+02   2.318e+02   1.103e+01   1.165e-02   1.196e+01   3.702e-02
2.970e+02   2.671e+02   1.155e+01   9.408e-03   1.206e+01   1.278e-02
3.496e+02   3.064e+02   1.205e+01   7.456e-03   1.215e+01   3.660e-02
4.114e+02   3.497e+02   1.254e+01   8.809e-03   1.224e+01   3.625e-02
4.842e+02   3.971e+02   1.300e+01   1.111e-02   1.232e+01   2.268e-02
5.699e+02   4.484e+02   1.345e+01   1.126e-02   1.241e+01   3.421e-02
6.707e+02   5.036e+02   1.389e+01   9.580e-03   1.252e+01   2.604e-02
7.894e+02   5.625e+02   1.430e+01   8.254e-03   1.260e+01   4.500e-02
9.290e+02   6.250e+02   1.470e+01   8.602e-03   1.259e+01   4.402e-02
1.093e+03   6.909e+02   1.508e+01   8.571e-03   1.255e+01   3.207e-02
1.287e+03   7.600e+02   1.545e+01   6.868e-03   1.250e+01   6.691e-02
1.515e+03   8.321e+02   1.580e+01   4.642e-03   1.248e+01   6.099e-02
1.783e+03   9.071e+02   1.614e+01   2.444e-03   1.247e+01   5.096e-02
2.098e+03   9.849e+02   1.646e+01   5.472e-03   1.246e+01   4.318e-02
2.469e+03   1.065e+03   1.678e+01   9.230e-03   1.243e+01   7.478e-02
2.906e+03   1.148e+03   1.708e+01   1.236e-02   1.237e+01   1.261e-01
3.420e+03   1.233e+03   1.736e+01   1.503e-02   1.229e+01   1.070e-01
4.025e+03   1.321e+03   1.764e+01   1.518e-02   1.219e+01   5.619e-02
4.738e+03   1.410e+03   1.790e+01   1.168e-02   1.209e+01   1.598e-01
5.576e+03   1.502e+03   1.815e+01   7.790e-03   1.201e+01   2.003e-01
6.563e+03   1.595e+03   1.840e+01   8.618e-03   1.191e+01   1.386e-01
7.724e+03   1.691e+03   1.864e+01   1.059e-02   1.180e+01   7.765e-02
9.090e+03   1.788e+03   1.887e+01   1.123e-02   1.166e+01   1.645e-01
1.070e+04   1.887e+03   1.909e+01   1.126e-02   1.152e+01   1.753e-01
1.259e+04   1.987e+03   1.931e+01   1.034e-02   1.137e+01   1.086e-01
1.482e+04   2.090e+03   1.952e+01   7.618e-03   1.122e+01   5.933e-02
1.744e+04   2.193e+03   1.972e+01   6.386e-03   1.105e+01   1.231e-01
2.053e+04   2.299e+03   1.992e+01   9.015e-03   1.092e+01   1.431e-01
2.416e+04   2.405e+03   2.011e+01   1.099e-02   1.080e+01   8.545e-02
2.844e+04   2.513e+03   2.029e+01   1.177e-02   1.068e+01   1.010e-01
3.347e+04   2.623e+03   2.047e+01   1.351e-02   1.050e+01   1.291e-01
3.939e+04   2.733e+03   2.065e+01   1.690e-02   1.027e+01   6.534e-02
4.636e+04   2.845e+03   2.082e+01   2.064e-02   1.002e+01   1.145e-01
5.456e+04   2.959e+03   2.099e+01   2.379e-02   9.786e+00   1.995e-01
6.421e+04   3.073e+03   2.115e+01   2.656e-02   9.575e+00   1.834e-01
7.557e+04   3.189e+03   2.131e+01   2.904e-02   9.383e+00   1.519e-01

File: n2_cubtc_350K.aif
data_N2_CuBTC_350K
_exptl_date
_exptl_temperature 350
_adsnt_material_id CuBTC
_adsnt_filename 'data.CuBTC_CaleroIV_rep111'
_units_temperature K
_units_fugacity BAR
_units_pressure BAR
_units_loading MOL-PER-KiloGM
_units_qst KiloJ-PER-MOL
_exptl_isotherm_type absolute
_exptl_adsorptive_name 'Nitrogen'
_forcefield_adsorptive 'TraPPE N2; 12ang linear-force shift'
_forcefield_adsnt 'see adsorbent file'

loop_
_adsorp_fugacity
_adsorp_pressure
_adsorp_amount
_adsorp_amount_uncertainty
_adsorp_qst
_adsorp_qst_uncertainty
4.864e-02   4.864e-02   6.019e-03   8.458e-05   1.209e+01   4.090e-02
5.621e-02   5.621e-02   6.954e-03   9.618e-05   1.209e+01   4.046e-02
6.496e-02   6.496e-02   8.033e-03   1.092e-04   1.208e+01   3.996e-02
7.507e-02   7.507e-02   9.279e-03   1.239e-04   1.208e+01   3.938e-02
8.676e-02   8.676e-02   1.072e-02   1.404e-04   1.208e+01   3.873e-02
1.003e-01   1.003e-01   1.238e-02   1.591e-04   1.208e+01   3.798e-02
1.159e-01   1.159e-01   1.430e-02   1.805e-04   1.208e+01   3.713e-02
1.339e-01   1.339e-01   1.651e-02   2.052e-04   1.207e+01   3.616e-02
1.548e-01   1.548e-01   1.906e-02   2.341e-04   1.207e+01   3.507e-02
1.789e-01   1.789e-01   2.200e-02   2.686e-04   1.207e+01   3.385e-02
2.067e-01   2.067e-01   2.540e-02   3.105e-04   1.206e+01   3.248e-02
2.389e-01   2.389e-01   2.932e-02   3.620e-04   1.206e+01   3.097e-02
2.761e-01   2.761e-01   3.383e-02   4.260e-04   1.206e+01   2.931e-02
3.191e-01   3.190e-01   3.904e-02   5.055e-04   1.205e+01   2.752e-02
3.687e-01   3.687e-01   4.503e-02   6.036e-04   1.204e+01   2.562e-02
4.261e-01   4.261e-01   5.194e-02   7.230e-04   1.204e+01   2.366e-02
4.925e-01   4.924e-01   5.990e-02   8.659e-04   1.203e+01   2.169e-02
5.691e-01   5.690e-01   6.907e-02   1.033e-03   1.202e+01   1.980e-02
6.577e-01   6.576e-01   7.963e-02   1.223e-03   1.201e+01   1.812e-02
7.601e-01   7.600e-01   9.179e-02   1.432e-03   1.199e+01   1.677e-02
8.785e-01   8.782e-01   1.058e-01   1.656e-03   1.198e+01   1.584e-02
1.015e+00   1.015e+00   1.219e-01   1.885e-03   1.196e+01   1.536e-02
1.173e+00   1.173e+00   1.405e-01   2.108e-03   1.194e+01   1.522e-02
1.356e+00   1.355e+00   1.618e-01   2.317e-03   1.192e+01   1.524e-02
1.567e+00   1.566e+00   1.863e-01   2.500e-03   1.190e+01   1.517e-02
1.811e+00   1.810e+00   2.144e-01   2.655e-03   1.187e+01   1.479e-02
2.093e+00   2.091e+00   2.467e-01   2.785e-03   1.184e+01   1.391e-02
2.419e+00   2.417e+00   2.835e-01   2.905e-03   1.180e+01   1.240e-02
2.795e+00   2.793e+00   3.256e-01   3.039e-03   1.176e+01   1.026e-02
3.231e+00   3.227e+00   3.735e-01   3.208e-03   1.172e+01   7.683e-03
3.734e+00   3.728e+00   4.279e-01   3.415e-03   1.167e+01   5.355e-03
4.315e+00   4.308e+00   4.897e-01   3.635e-03   1.162e+01   4.732e-03
4.987e+00   4.977e+00   5.599e-01   3.800e-03   1.156e+01   5.921e-03
5.763e+00   5.750e+00   6.394e-01   3.791e-03   1.150e+01   6.969e-03
6.660e+00   6.643e+00   7.296e-01   3.442e-03   1.144e+01   6.848e-03
7.697e+00   7.674e+00   8.314e-01   2.634e-03   1.137e+01   5.988e-03
8.895e+00   8.865e+00   9.461e-01   1.815e-03   1.130e+01   6.381e-03
1.028e+01   1.024e+01   1.075e+00   2.710e-03   1.122e+01   8.246e-03
1.188e+01   1.183e+01   1.219e+00   4.706e-03   1.115e+01   9.556e-03
1.373e+01   1.366e+01   1.380e+00   6.738e-03   1.108e+01   1.036e-02
1.587e+01   1.577e+01   1.558e+00   8.568e-03   1.101e+01   1.055e-02
1.834e+01   1.821e+01   1.756e+00   9.955e-03   1.095e+01   8.385e-03
2.119e+01   2.102e+01   1.973e+00   1.063e-02   1.089e+01   6.225e-03
2.449e+01   2.427e+01   2.212e+00   1.047e-02   1.084e+01   5.891e-03
2.831e+01   2.801e+01   2.472e+00   9.214e-03   1.079e+01   4.486e-03
3.271e+01   3.231e+01   2.756e+00   6.712e-03   1.076e+01   5.127e-03
3.780e+01   3.727e+01   3.065e+00   4.159e-03   1.075e+01   9.251e-03
4.369e+01   4.297e+01   3.398e+00   3.230e-03   1.075e+01   9.559e-03
5.049e+01   4.953e+01   3.754e+00   3.125e-03   1.076e+01   7.358e-03
5.835e+01   5.705e+01   4.133e+00   3.909e-03   1.077e+01   1.149e-02
6.744e+01   6.569e+01   4.534e+00   5.508e-03   1.080e+01   6.126e-03
7.794e+01   7.558e+01   4.956e+00   6.787e-03   1.085e+01   1.321e-02
9.007e+01   8.690e+01   5.395e+00   7.475e-03   1.091e+01   1.871e-02
1.041e+02   9.981e+01   5.849e+00   5.786e-03   1.099e+01   1.702e-02
1.203e+02   1.145e+02   6.317e+00   4.652e-03   1.108e+01   1.464e-02
1.390e+02   1.312e+02   6.796e+00   7.647e-03   1.116e+01   1.290e-02
1.607e+02   1.502e+02   7.282e+00   7.988e-03   1.125e+01   1.919e-02
1.857e+02   1.715e+02   7.770e+00   5.618e-03   1.134e+01   1.456e-02
2.146e+02   1.955e+02   8.256e+00   3.825e-03   1.144e+01   1.113e-02
2.480e+02   2.223e+02   8.742e+00   5.730e-03   1.155e+01   6.110e-03
2.866e+02   2.521e+02   9.226e+00   5.010e-03   1.165e+01   1.676e-02
3.312e+02   2.852e+02   9.707e+00   3.578e-03   1.173e+01   2.290e-02
3.828e+02   3.215e+02   1.018e+01   6.303e-03   1.182e+01   2.478e-02
4.424e+02   3.612e+02   1.064e+01   8.594e-03   1.192e+01   1.978e-02
5.113e+02   4.043e+02   1.110e+01   1.126e-02   1.203e+01   3.069e-02
5.909e+02   4.509e+02   1.154e+01   1.558e-02   1.211e+01   4.119e-02
6.828e+02   5.009e+02   1.197e+01   1.610e-02   1.218e+01   2.877e-02
7.892e+02   5.544e+02   1.239e+01   1.057e-02   1.222e+01   1.864e-02
9.120e+02   6.111e+02   1.280e+01   5.299e-03   1.226e+01   2.959e-02
1.054e+03   6.710e+02   1.319e+01   7.178e-03   1.231e+01   6.482e-02
1.218e+03   7.341e+02   1.358e+01   7.639e-03   1.236e+01   4.195e-02
1.408e+03   8.002e+02   1.396e+01   5.856e-03   1.242e+01   3.097e-02
1.627e+03   8.692e+02   1.432e+01   7.531e-03   1.249e+01   7.717e-02
1.880e+03   9.409e+02   1.467e+01   1.270e-02   1.251e+01   7.939e-02
2.173e+03   1.015e+03   1.502e+01   1.660e-02   1.248e+01   5.361e-02
2.511e+03   1.092e+03   1.535e+01   1.671e-02   1.242e+01   3.812e-02
2.902e+03   1.172e+03   1.567e+01   1.269e-02   1.235e+01   8.891e-02
3.354e+03   1.254e+03   1.597e+01   5.900e-03   1.230e+01   1.199e-01
3.876e+03   1.338e+03   1.627e+01   1.922e-03   1.225e+01   8.711e-02
4.480e+03   1.424e+03   1.656e+01   4.917e-03   1.221e+01   2.644e-02
5.177e+03   1.513e+03   1.684e+01   6.252e-03   1.217e+01   8.755e-02
5.983e+03   1.603e+03   1.711e+01   7.278e-03   1.211e+01   1.151e-01
6.914e+03   1.696e+03   1.737e+01   7.473e-03   1.203e+01   1.044e-01
7.991e+03   1.790e+03   1.762e+01   9.510e-03   1.194e+01   1.405e-01
9.235e+03   1.886e+03   1.787e+01   1.499e-02   1.184e+01   2.204e-01
1.067e+04   1.984e+03   1.811e+01   2.031e-02   1.172e+01   2.597e-01
1.233e+04   2.084e+03   1.834e+01   2.288e-02   1.158e+01   2.073e-01
1.425e+04   2.185e+03   1.856e+01   2.197e-02   1.143e+01   1.613e-01
1.647e+04   2.288e+03   1.878e+01   1.820e-02   1.127e+01   2.580e-01
1.904e+04   2.392e+03   1.899e+01   1.290e-02   1.112e+01   2.879e-01
2.200e+04   2.498e+03   1.919e+01   7.572e-03   1.099e+01   2.253e-01
2.543e+04   2.605e+03   1.938e+01   3.802e-03   1.084e+01   1.737e-01
2.939e+04   2.714e+03   1.957e+01   4.033e-03   1.069e+01   1.699e-01
3.396e+04   2.824e+03   1.976e+01   6.106e-03   1.051e+01   1.543e-01
3.925e+04   2.935e+03   1.994e+01   8.106e-03   1.034e+01   1.507e-01
4.536e+04   3.048e+03   2.013e+01   1.031e-02   1.018e+01   1.733e-01
5.242e+04   3.162e+03   2.030e+01   1.295e-02   1.004e+01   1.464e-01
6.058e+04   3.277e+03   2.048e+01   1.545e-02   9.900e+00   6.047e-02
7.001e+04   3.393e+03   2.065e+01   1.663e-02   9.745e+00   4.628e-02
8.091e+04   3.511e+03   2.081e+01   1.570e-02   9.574e+00   7.560e-02

File: n2_irmof1_300K.aif
data_N2_IRMOF1_300K
_exptl_date
_exptl_temperature 300
_adsnt_material_id IRMOF-1
_adsnt_filename 'data.IRMOF1_mCBAC_rep111'
_units_temperature K
_units_fugacity BAR
_units_pressure BAR
_units_loading MOL-PER-KiloGM
_units_qst KiloJ-PER-MOL
_exptl_isotherm_type absolute
_exptl_adsorptive_name 'Nitrogen'
_forcefield_adsorptive 'TraPPE N2; 12ang linear-force shift'
_forcefield_adsnt 'see adsorbent file'

loop_
_adsorp_fugacity
_adsorp_pressure
_adsorp_amount
_adsorp_amount_uncertainty
_adsorp_qst
_adsorp_qst_uncertainty
7.478e-03   7.480e-03   1.245e-03   2.354e-05   7.775e+00   5.505e-03
8.802e-03   8.804e-03   1.465e-03   2.767e-05   7.775e+00   5.490e-03
1.036e-02   1.036e-02   1.724e-03   3.250e-05   7.775e+00   5.472e-03
1.219e-02   1.220e-02   2.030e-03   3.817e-05   7.775e+00   5.452e-03
1.435e-02   1.435e-02   2.389e-03   4.482e-05   7.775e+00   5.428e-03
1.689e-02   1.689e-02   2.811e-03   5.259e-05   7.775e+00   5.400e-03
1.988e-02   1.988e-02   3.309e-03   6.168e-05   7.775e+00   5.367e-03
2.339e-02   2.340e-02   3.894e-03   7.231e-05   7.775e+00   5.329e-03
2.753e-02   2.754e-02   4.583e-03   8.470e-05   7.775e+00   5.283e-03
3.240e-02   3.241e-02   5.394e-03   9.913e-05   7.775e+00   5.230e-03
3.814e-02   3.815e-02   6.348e-03   1.159e-04   7.775e+00   5.168e-03
4.488e-02   4.490e-02   7.471e-03   1.354e-04   7.776e+00   5.095e-03
5.283e-02   5.284e-02   8.792e-03   1.579e-04   7.776e+00   5.009e-03
6.217e-02   6.219e-02   1.035e-02   1.838e-04   7.776e+00   4.910e-03
7.317e-02   7.319e-02   1.218e-02   2.137e-04   7.776e+00   4.793e-03
8.612e-02   8.614e-02   1.433e-02   2.478e-04   7.776e+00   4.658e-03
1.014e-01   1.014e-01   1.687e-02   2.867e-04   7.776e+00   4.500e-03
1.193e-01   1.193e-01   1.985e-02   3.308e-04   7.777e+00   4.317e-03
1.404e-01   1.404e-01   2.336e-02   3.803e-04   7.777e+00   4.105e-03
1.652e-01   1.653e-01   2.749e-02   4.355e-04   7.777e+00   3.861e-03
1.945e-01   1.945e-01   3.235e-02   4.966e-04   7.778e+00   3.581e-03
2.289e-01   2.289e-01   3.807e-02   5.633e-04   7.778e+00   3.262e-03
2.694e-01   2.694e-01   4.479e-02   6.353e-04   7.779e+00   2.902e-03
3.171e-01   3.171e-01   5.270e-02   7.120e-04   7.780e+00   2.503e-03
3.732e-01   3.732e-01   6.201e-02   7.924e-04   7.781e+00   2.076e-03
4.392e-01   4.392e-01   7.296e-02   8.755e-04   7.782e+00   1.655e-03
5.169e-01   5.169e-01   8.583e-02   9.601e-04   7.783e+00   1.343e-03
6.083e-01   6.084e-01   1.010e-01   1.045e-03   7.784e+00   1.343e-03
7.160e-01   7.160e-01   1.188e-01   1.132e-03   7.786e+00   1.759e-03
8.427e-01   8.426e-01   1.397e-01   1.220e-03   7.788e+00   2.458e-03
9.918e-01   9.917e-01   1.643e-01   1.314e-03   7.790e+00   3.311e-03
1.167e+00   1.167e+00   1.931e-01   1.416e-03   7.792e+00   4.244e-03
1.374e+00   1.373e+00   2.270e-01   1.531e-03   7.795e+00   5.198e-03
1.617e+00   1.616e+00   2.668e-01   1.661e-03   7.799e+00   6.109e-03
1.903e+00   1.902e+00   3.134e-01   1.804e-03   7.803e+00   6.903e-03
2.240e+00   2.239e+00   3.681e-01   1.954e-03   7.807e+00   7.492e-03
2.636e+00   2.635e+00   4.322e-01   2.102e-03   7.812e+00   7.786e-03
3.102e+00   3.100e+00   5.072e-01   2.239e-03   7.818e+00   7.695e-03
3.651e+00   3.649e+00   5.949e-01   2.355e-03   7.824e+00   7.154e-03
4.297e+00   4.294e+00   6.975e-01   2.432e-03   7.832e+00   6.142e-03
5.058e+00   5.053e+00   8.172e-01   2.431e-03   7.840e+00   4.739e-03
5.952e+00   5.946e+00   9.569e-01   2.291e-03   7.851e+00   3.269e-03
7.006e+00   6.997e+00   1.120e+00   1.992e-03   7.863e+00   2.683e-03
8.245e+00   8.233e+00   1.308e+00   1.707e-03   7.878e+00   3.435e-03
9.704e+00   9.688e+00   1.527e+00   1.788e-03   7.896e+00   4.123e-03
1.142e+01   1.140e+01   1.780e+00   2.186e-03   7.916e+00   4.270e-03
1.344e+01   1.341e+01   2.071e+00   2.546e-03   7.938e+00   4.524e-03
1.582e+01   1.578e+01   2.405e+00   2.901e-03   7.964e+00   3.925e-03
1.862e+01   1.856e+01   2.785e+00   3.703e-03   7.996e+00   2.062e-03
2.191e+01   2.184e+01   3.216e+00   4.192e-03   8.035e+00   5.279e-03
2.579e+01   2.568e+01   3.701e+00   3.056e-03   8.080e+00   7.675e-03
3.035e+01   3.020e+01   4.244e+00   1.238e-03   8.128e+00   4.638e-03
3.573e+01   3.551e+01   4.848e+00   2.577e-03   8.183e+00   3.246e-03
4.205e+01   4.174e+01   5.515e+00   4.779e-03   8.248e+00   3.378e-03
4.949e+01   4.904e+01   6.243e+00   5.432e-03   8.320e+00   4.855e-03
5.824e+01   5.760e+01   7.030e+00   5.746e-03   8.399e+00   8.369e-03
6.855e+01   6.762e+01   7.873e+00   6.180e-03   8.490e+00   4.051e-03
8.068e+01   7.932e+01   8.764e+00   6.081e-03   8.595e+00   4.945e-03
9.495e+01   9.295e+01   9.694e+00   5.642e-03   8.708e+00   7.292e-03
1.117e+02   1.088e+02   1.065e+01   4.986e-03   8.823e+00   1.042e-02
1.315e+02   1.272e+02   1.163e+01   6.626e-03   8.948e+00   6.559e-03
1.548e+02   1.484e+02   1.262e+01   3.709e-03   9.082e+00   1.736e-02
1.822e+02   1.727e+02   1.361e+01   3.753e-03   9.211e+00   8.335e-03
2.144e+02   2.004e+02   1.459e+01   1.501e-03   9.334e+00   8.763e-03
2.524e+02   2.318e+02   1.555e+01   5.262e-03   9.466e+00   1.046e-02
2.970e+02   2.671e+02   1.649e+01   8.988e-03   9.601e+00   1.415e-02
3.496e+02   3.064e+02   1.740e+01   6.445e-03   9.722e+00   2.015e-02
4.114e+02   3.497e+02   1.828e+01   5.426e-03   9.842e+00   3.054e-02
4.842e+02   3.971e+02   1.914e+01   7.510e-03   9.969e+00   4.135e-02
5.699e+02   4.484e+02   1.996e+01   1.243e-02   1.008e+01   2.681e-02
6.707e+02   5.036e+02   2.075e+01   1.276e-02   1.016e+01   2.239e-02
7.894e+02   5.625e+02   2.150e+01   1.203e-02   1.022e+01   3.628e-02
9.290e+02   6.250e+02   2.222e+01   1.171e-02   1.029e+01   4.668e-02
1.093e+03   6.909e+02   2.292e+01   1.227e-02   1.034e+01   3.131e-02
1.287e+03   7.600e+02   2.358e+01   1.532e-02   1.039e+01   5.427e-02
1.515e+03   8.321e+02   2.422e+01   1.637e-02   1.045e+01   6.615e-02
1.783e+03   9.071e+02   2.484e+01   1.524e-02   1.051e+01   3.042e-02
2.098e+03   9.849e+02   2.543e+01   1.224e-02   1.053e+01   5.503e-02
2.469e+03   1.065e+03   2.600e+01   8.771e-03   1.049e+01   7.370e-02
2.906e+03   1.148e+03   2.655e+01   1.070e-02   1.044e+01   3.898e-02
3.420e+03   1.233e+03   2.708e+01   1.264e-02   1.040e+01   1.689e-02
4.025e+03   1.321e+03   2.759e+01   1.518e-02   1.037e+01   1.690e-02
4.738e+03   1.410e+03   2.808e+01   1.739e-02   1.035e+01   2.610e-02
5.576e+03   1.502e+03   2.856e+01   1.719e-02   1.032e+01   3.733e-02
6.563e+03   1.595e+03   2.903e+01   1.825e-02   1.026e+01   5.917e-02
7.724e+03   1.691e+03   2.949e+01   2.201e-02   1.019e+01   5.911e-02
9.090e+03   1.788e+03   2.993e+01   2.341e-02   1.012e+01   4.805e-02
1.070e+04   1.887e+03   3.036e+01   1.900e-02   1.007e+01   4.983e-02
1.259e+04   1.987e+03   3.077e+01   1.462e-02   1.001e+01   8.033e-02
1.482e+04   2.090e+03   3.118e+01   1.873e-02   9.944e+00   8.916e-02
1.744e+04   2.193e+03   3.158e+01   2.510e-02   9.880e+00   1.228e-01
2.053e+04   2.299e+03   3.197e+01   2.853e-02   9.795e+00   1.116e-01
2.416e+04   2.405e+03   3.235e+01   2.791e-02   9.689e+00   4.107e-02
2.844e+04   2.513e+03   3.272e+01   2.612e-02   9.602e+00   8.438e-02
3.347e+04   2.623e+03   3.308e+01   2.683e-02   9.554e+00   1.887e-01
3.939e+04   2.733e+03   3.343e+01   2.816e-02   9.505e+00   2.513e-01
4.636e+04   2.845e+03   3.378e+01   2.696e-02   9.408e+00   1.776e-01
5.456e+04   2.959e+03   3.411e+01   2.253e-02   9.269e+00   8.523e-02
6.421e+04   3.073e+03   3.444e+01   1.661e-02   9.131e+00   2.050e-01
7.557e+04   3.189e+03   3.477e+01   1.556e-02   9.021e+00   2.426e-01