Folder: NIST_SRSW_Data/H2O_REF_ISOTHERMS/AIF

File: h2o_cubtc_300K.aif
data_H2O_CuBTC_300K
_exptl_temperature 300
_adsnt_material_id CuBTC
_simltn_adsorbent_filename 'data.CuBTC_CaleroIV_rep111'
_units_temperature K
_units_fugacity PA
_units_pressure RELATIVE
_units_loading MOL-PER-KiloGM
_units_qst KiloJ-PER-MOL
_exptl_isotherm_type absolute
_exptl_adsorptive_name 'Water'
_simltn_forcefield_adsorptive 'SPC/E H2O; 10ang linear-force shift'
_simltn_forcefield_adsorbent 'see adsorbent file'

loop_
_adsorp_fugacity
_adsorp_pressure
_adsorp_amount
_adsorp_amount_uncertainty
8.53719e+00  6.75520e-03  8.10892e-03  1.11096e-04
8.70965e+00  6.89166e-03  8.27267e-03  1.13245e-04
8.88560e+00  7.03089e-03  8.43973e-03  1.15434e-04
9.06510e+00  7.17293e-03  8.61017e-03  1.17664e-04
9.24823e+00  7.31783e-03  8.78404e-03  1.19934e-04
9.43505e+00  7.46567e-03  8.96142e-03  1.22245e-04
9.62565e+00  7.61649e-03  9.14238e-03  1.24599e-04
9.82010e+00  7.77036e-03  9.32700e-03  1.26996e-04
1.00185e+01  7.92734e-03  9.51534e-03  1.29436e-04
1.02209e+01  8.08749e-03  9.70748e-03  1.31921e-04
1.04273e+01  8.25087e-03  9.90351e-03  1.34451e-04
1.06380e+01  8.41756e-03  1.01035e-02  1.37026e-04
1.08529e+01  8.58761e-03  1.03075e-02  1.39647e-04
1.10721e+01  8.76110e-03  1.05156e-02  1.42316e-04
1.12958e+01  8.93809e-03  1.07280e-02  1.45032e-04
1.15240e+01  9.11866e-03  1.09446e-02  1.47796e-04
1.17568e+01  9.30288e-03  1.11656e-02  1.50610e-04
1.19943e+01  9.49082e-03  1.13910e-02  1.53474e-04
1.22366e+01  9.68255e-03  1.16210e-02  1.56388e-04
1.24838e+01  9.87816e-03  1.18557e-02  1.59354e-04
1.27360e+01  1.00777e-02  1.20951e-02  1.62372e-04
1.29933e+01  1.02813e-02  1.23393e-02  1.65442e-04
1.32558e+01  1.04890e-02  1.25884e-02  1.68567e-04
1.35235e+01  1.07009e-02  1.28426e-02  1.71745e-04
1.37967e+01  1.09171e-02  1.31019e-02  1.74979e-04
1.40754e+01  1.11377e-02  1.33664e-02  1.78268e-04
1.43598e+01  1.13627e-02  1.36363e-02  1.81614e-04
1.46499e+01  1.15922e-02  1.39116e-02  1.85017e-04
1.49458e+01  1.18264e-02  1.41924e-02  1.88479e-04
1.52477e+01  1.20653e-02  1.44790e-02  1.91999e-04
1.55558e+01  1.23091e-02  1.47713e-02  1.95578e-04
1.58700e+01  1.25578e-02  1.50695e-02  1.99218e-04
1.61906e+01  1.28115e-02  1.53737e-02  2.02919e-04
1.65177e+01  1.30703e-02  1.56841e-02  2.06682e-04
1.68514e+01  1.33343e-02  1.60007e-02  2.10507e-04
1.71918e+01  1.36037e-02  1.63238e-02  2.14395e-04
1.75391e+01  1.38786e-02  1.66533e-02  2.18347e-04
1.78934e+01  1.41589e-02  1.69895e-02  2.22364e-04
1.82549e+01  1.44450e-02  1.73325e-02  2.26446e-04
1.86236e+01  1.47368e-02  1.76823e-02  2.30594e-04
1.89999e+01  1.50345e-02  1.80393e-02  2.34809e-04
1.93837e+01  1.53383e-02  1.84034e-02  2.39091e-04
1.97753e+01  1.56482e-02  1.87749e-02  2.43441e-04
2.01747e+01  1.59643e-02  1.91539e-02  2.47860e-04
2.05823e+01  1.62868e-02  1.95406e-02  2.52348e-04
2.09981e+01  1.66159e-02  1.99350e-02  2.56905e-04
2.14223e+01  1.69515e-02  2.03374e-02  2.61534e-04
2.18550e+01  1.72940e-02  2.07479e-02  2.66233e-04
2.22965e+01  1.76434e-02  2.11667e-02  2.71003e-04
2.27470e+01  1.79999e-02  2.15939e-02  2.75846e-04
2.32065e+01  1.83635e-02  2.20298e-02  2.80762e-04
2.36753e+01  1.87345e-02  2.24744e-02  2.85750e-04
2.41536e+01  1.91130e-02  2.29281e-02  2.90812e-04
2.46415e+01  1.94991e-02  2.33908e-02  2.95947e-04
2.51393e+01  1.98931e-02  2.38629e-02  3.01157e-04
2.56471e+01  2.02950e-02  2.43446e-02  3.06442e-04
2.61652e+01  2.07050e-02  2.48359e-02  3.11801e-04
2.66938e+01  2.11233e-02  2.53372e-02  3.17236e-04
2.72331e+01  2.15501e-02  2.58485e-02  3.22746e-04
2.77832e+01  2.19855e-02  2.63702e-02  3.28331e-04
2.83445e+01  2.24297e-02  2.69024e-02  3.33992e-04
2.89171e+01  2.28828e-02  2.74454e-02  3.39729e-04
2.95012e+01  2.33451e-02  2.79993e-02  3.45541e-04
3.00972e+01  2.38168e-02  2.85643e-02  3.51429e-04
3.07052e+01  2.42980e-02  2.91408e-02  3.57393e-04
3.13255e+01  2.47889e-02  2.97289e-02  3.63432e-04
3.19583e+01  2.52897e-02  3.03288e-02  3.69547e-04
3.26039e+01  2.58007e-02  3.09409e-02  3.75736e-04
3.32625e+01  2.63219e-02  3.15653e-02  3.82000e-04
3.39345e+01  2.68537e-02  3.22023e-02  3.88338e-04
3.46200e+01  2.73963e-02  3.28522e-02  3.94749e-04
3.53194e+01  2.79498e-02  3.35152e-02  4.01234e-04
3.60329e+01  2.85145e-02  3.41915e-02  4.07790e-04
3.67608e+01  2.90906e-02  3.48815e-02  4.14419e-04
3.75034e+01  2.96784e-02  3.55855e-02  4.21117e-04
3.82610e+01  3.02780e-02  3.63036e-02  4.27886e-04
3.90339e+01  3.08897e-02  3.70363e-02  4.34723e-04
3.98225e+01  3.15138e-02  3.77837e-02  4.41627e-04
4.06270e+01  3.21505e-02  3.85462e-02  4.48597e-04
4.14477e+01  3.28001e-02  3.93241e-02  4.55631e-04
4.22850e+01  3.34628e-02  4.01177e-02  4.62729e-04
4.31392e+01  3.41389e-02  4.09274e-02  4.69887e-04
4.40107e+01  3.48287e-02  4.17534e-02  4.77105e-04
4.48997e+01  3.55324e-02  4.25961e-02  4.84380e-04
4.58068e+01  3.62503e-02  4.34558e-02  4.91710e-04
4.67321e+01  3.69828e-02  4.43329e-02  4.99094e-04
4.76762e+01  3.77300e-02  4.52277e-02  5.06527e-04
4.86393e+01  3.84923e-02  4.61406e-02  5.14009e-04
4.96219e+01  3.92701e-02  4.70720e-02  5.21535e-04
5.06243e+01  4.00635e-02  4.80222e-02  5.29104e-04
5.16470e+01  4.08730e-02  4.89916e-02  5.36711e-04
5.26903e+01  4.16988e-02  4.99807e-02  5.44354e-04
5.37547e+01  4.25414e-02  5.09897e-02  5.52029e-04
5.48407e+01  4.34010e-02  5.20192e-02  5.59733e-04
5.59485e+01  4.42779e-02  5.30696e-02  5.67460e-04
5.70787e+01  4.51726e-02  5.41412e-02  5.75208e-04
5.82318e+01  4.60853e-02  5.52345e-02  5.82971e-04
5.94082e+01  4.70165e-02  5.63500e-02  5.90745e-04
6.06083e+01  4.79665e-02  5.74881e-02  5.98526e-04
6.18327e+01  4.89357e-02  5.86494e-02  6.06307e-04
6.30818e+01  4.99245e-02  5.98342e-02  6.14085e-04
6.43561e+01  5.09333e-02  6.10430e-02  6.21852e-04
6.56562e+01  5.19624e-02  6.22765e-02  6.29604e-04
6.69825e+01  5.30124e-02  6.35350e-02  6.37334e-04
6.83357e+01  5.40836e-02  6.48191e-02  6.45036e-04
6.97161e+01  5.51764e-02  6.61294e-02  6.52703e-04
7.11245e+01  5.62914e-02  6.74663e-02  6.60328e-04
7.25613e+01  5.74288e-02  6.88305e-02  6.67905e-04
7.40271e+01  5.85893e-02  7.02226e-02  6.75425e-04
7.55226e+01  5.97732e-02  7.16431e-02  6.82880e-04
7.70482e+01  6.09810e-02  7.30926e-02  6.90264e-04
7.86047e+01  6.22133e-02  7.45717e-02  6.97567e-04
8.01926e+01  6.34704e-02  7.60812e-02  7.04781e-04
8.18126e+01  6.47530e-02  7.76215e-02  7.11896e-04
8.34654e+01  6.60615e-02  7.91935e-02  7.18905e-04
8.51515e+01  6.73965e-02  8.07978e-02  7.25797e-04
8.68717e+01  6.87584e-02  8.24351e-02  7.32562e-04
8.86266e+01  7.01479e-02  8.41061e-02  7.39191e-04
9.04169e+01  7.15654e-02  8.58116e-02  7.45673e-04
9.22435e+01  7.30116e-02  8.75523e-02  7.51997e-04
9.41069e+01  7.44871e-02  8.93290e-02  7.58154e-04
9.60080e+01  7.59923e-02  9.11426e-02  7.64131e-04
9.79475e+01  7.75280e-02  9.29938e-02  7.69917e-04
9.99262e+01  7.90948e-02  9.48834e-02  7.75502e-04
1.01945e+02  8.06932e-02  9.68125e-02  7.80872e-04
1.04004e+02  8.23239e-02  9.87818e-02  7.86016e-04
1.06105e+02  8.39876e-02  1.00792e-01  7.90922e-04
1.08249e+02  8.56850e-02  1.02845e-01  7.95578e-04
1.10436e+02  8.74166e-02  1.04941e-01  7.99970e-04
1.12666e+02  8.91833e-02  1.07081e-01  8.04086e-04
1.14942e+02  9.09857e-02  1.09266e-01  8.07912e-04
1.17264e+02  9.28245e-02  1.11498e-01  8.11437e-04
1.19633e+02  9.47005e-02  1.13777e-01  8.14645e-04
[...]
8.07895e+02  6.41183e-01  3.83306e+01  4.81007e-02
8.16014e+02  6.47648e-01  3.83904e+01  4.67240e-02
8.24215e+02  6.54178e-01  3.84487e+01  4.55925e-02
8.32499e+02  6.60774e-01  3.85056e+01  4.46792e-02
8.40866e+02  6.67436e-01  3.85612e+01  4.39507e-02
8.49316e+02  6.74166e-01  3.86154e+01  4.33696e-02
8.57852e+02  6.80964e-01  3.86683e+01  4.28983e-02
8.66474e+02  6.87831e-01  3.87199e+01  4.25004e-02
8.75182e+02  6.94767e-01  3.87703e+01  4.21435e-02
8.83978e+02  7.01774e-01  3.88196e+01  4.17996e-02
8.92862e+02  7.08852e-01  3.88677e+01  4.14460e-02
9.01835e+02  7.16001e-01  3.89148e+01  4.10651e-02
9.10899e+02  7.23222e-01  3.89608e+01  4.06442e-02
9.20053e+02  7.30517e-01  3.90058e+01  4.01753e-02
9.29300e+02  7.37885e-01  3.90499e+01  3.96542e-02
9.38640e+02  7.45329e-01  3.90931e+01  3.90801e-02
9.48073e+02  7.52847e-01  3.91353e+01  3.84552e-02
9.57602e+02  7.60442e-01  3.91768e+01  3.77840e-02
9.67226e+02  7.68113e-01  3.92174e+01  3.70729e-02
9.76946e+02  7.75863e-01  3.92573e+01  3.63300e-02
9.86765e+02  7.83691e-01  3.92964e+01  3.55646e-02
9.96682e+02  7.91598e-01  3.93347e+01  3.47870e-02
1.00670e+03  7.99585e-01  3.93724e+01  3.40080e-02
1.01682e+03  8.07653e-01  3.94095e+01  3.32391e-02
1.02704e+03  8.15803e-01  3.94458e+01  3.24918e-02
1.03736e+03  8.24036e-01  3.94816e+01  3.17775e-02
1.04778e+03  8.32352e-01  3.95167e+01  3.11075e-02
1.05831e+03  8.40752e-01  3.95513e+01  3.04921e-02
1.06895e+03  8.49238e-01  3.95853e+01  2.99409e-02
1.07969e+03  8.57809e-01  3.96188e+01  2.94620e-02
1.09054e+03  8.66468e-01  3.96518e+01  2.90623e-02
1.10150e+03  8.75214e-01  3.96842e+01  2.87465e-02
1.11257e+03  8.84049e-01  3.97162e+01  2.85174e-02
1.12376e+03  8.92974e-01  3.97477e+01  2.83757e-02
1.13505e+03  9.01989e-01  3.97787e+01  2.83199e-02
1.14646e+03  9.11095e-01  3.98093e+01  2.83467e-02
1.15798e+03  9.20294e-01  3.98395e+01  2.84507e-02
1.16962e+03  9.29587e-01  3.98692e+01  2.86253e-02
1.18137e+03  9.38974e-01  3.98986e+01  2.88625e-02
1.19324e+03  9.48456e-01  3.99276e+01  2.91537e-02
1.20524e+03  9.58034e-01  3.99562e+01  2.94897e-02
1.21735e+03  9.67709e-01  3.99844e+01  2.98614e-02
1.22958e+03  9.77483e-01  4.00124e+01  3.02595e-02
1.24194e+03  9.87356e-01  4.00400e+01  3.06754e-02
1.25442e+03  9.97330e-01  4.00672e+01  3.11007e-02
1.26703e+03  7.64954e+02  4.00942e+01  3.15277e-02
1.27977e+03  1.80176e+03  4.01209e+01  3.19496e-02
1.29263e+03  2.83924e+03  4.01473e+01  3.23599e-02
1.30562e+03  3.87741e+03  4.01735e+01  3.27532e-02
1.31874e+03  4.91626e+03  4.01994e+01  3.31247e-02
1.33199e+03  5.95579e+03  4.02251e+01  3.34702e-02
1.34538e+03  6.99600e+03  4.02505e+01  3.37864e-02
1.35890e+03  8.03689e+03  4.02757e+01  3.40703e-02
1.37256e+03  9.07846e+03  4.03008e+01  3.43199e-02
1.38635e+03  1.01207e+04  4.03256e+01  3.45336e-02
1.40029e+03  1.11637e+04  4.03503e+01  3.47103e-02
1.41436e+03  1.22073e+04  4.03747e+01  3.48494e-02
1.42857e+03  1.32516e+04  4.03991e+01  3.49509e-02
1.44293e+03  1.42966e+04  4.04232e+01  3.50150e-02
1.45743e+03  1.53422e+04  4.04472e+01  3.50427e-02
1.47208e+03  1.63886e+04  4.04711e+01  3.50348e-02
1.48687e+03  1.74356e+04  4.04948e+01  3.49930e-02
1.50182e+03  1.84833e+04  4.05184e+01  3.49189e-02
1.51691e+03  1.95317e+04  4.05419e+01  3.48145e-02
1.53216e+03  2.05808e+04  4.05653e+01  3.46820e-02
1.54756e+03  2.16306e+04  4.05886e+01  3.45239e-02
1.56311e+03  2.26810e+04  4.06118e+01  3.43428e-02
1.57882e+03  2.37321e+04  4.06348e+01  3.41413e-02
1.59469e+03  2.47840e+04  4.06578e+01  3.39223e-02
1.61071e+03  2.58365e+04  4.06807e+01  3.36887e-02
1.61879e+03  2.63630e+04  4.06921e+01  3.35672e-02

File: h2o_zif8_300K.aif
data_H2O_ZIF8_300K
_exptl_temperature 300
_adsnt_material_id ZIF-8
_simltn_adsorbent_filename 'data.ZIF8_Snurr_rep222'
_units_temperature K
_units_fugacity PA
_units_pressure RELATIVE
_units_loading MOL-PER-KiloGM
_units_qst KiloJ-PER-MOL
_exptl_isotherm_type absolute
_exptl_adsorptive_name 'Water'
_simltn_forcefield_adsorptive 'SPC/E Water; 10ang linear-force shift'
_simltn_forcefield_adsnt 'see adsnt file'

loop_
_adsorp_fugacity
_adsorp_pressure
_adsorp_amount
_adsorp_amount_uncertainty
8.53719e+00  6.75520e-03  9.14992e-06  5.30913e-09
8.79718e+00  6.96093e-03  9.42864e-06  5.47061e-09
9.06510e+00  7.17293e-03  9.71586e-06  5.63699e-09
9.34117e+00  7.39138e-03  1.00118e-05  5.80843e-09
9.62565e+00  7.61649e-03  1.03168e-05  5.98507e-09
9.91880e+00  7.84846e-03  1.06311e-05  6.16708e-09
1.02209e+01  8.08749e-03  1.09549e-05  6.35461e-09
1.05321e+01  8.33380e-03  1.12887e-05  6.54784e-09
1.08529e+01  8.58761e-03  1.16325e-05  6.74693e-09
1.11834e+01  8.84915e-03  1.19869e-05  6.95206e-09
1.15240e+01  9.11866e-03  1.23521e-05  7.16342e-09
1.18750e+01  9.39638e-03  1.27284e-05  7.38120e-09
1.22366e+01  9.68255e-03  1.31161e-05  7.60559e-09
1.26093e+01  9.97744e-03  1.35157e-05  7.83678e-09
1.29933e+01  1.02813e-02  1.39275e-05  8.07499e-09
1.33890e+01  1.05944e-02  1.43518e-05  8.32042e-09
1.37967e+01  1.09171e-02  1.47890e-05  8.57330e-09
1.42169e+01  1.12496e-02  1.52396e-05  8.83385e-09
1.46499e+01  1.15922e-02  1.57039e-05  9.10230e-09
1.50960e+01  1.19453e-02  1.61823e-05  9.37889e-09
1.55558e+01  1.23091e-02  1.66754e-05  9.66386e-09
1.60295e+01  1.26840e-02  1.71834e-05  9.95747e-09
1.65177e+01  1.30703e-02  1.77070e-05  1.02600e-08
1.70207e+01  1.34684e-02  1.82465e-05  1.05717e-08
1.75391e+01  1.38786e-02  1.88024e-05  1.08928e-08
1.80732e+01  1.43012e-02  1.93753e-05  1.12236e-08
1.86236e+01  1.47368e-02  1.99657e-05  1.15645e-08
1.91908e+01  1.51856e-02  2.05740e-05  1.19157e-08
1.97753e+01  1.56482e-02  2.12009e-05  1.22775e-08
2.03775e+01  1.61247e-02  2.18469e-05  1.26503e-08
2.09981e+01  1.66159e-02  2.25126e-05  1.30344e-08
2.16376e+01  1.71219e-02  2.31986e-05  1.34300e-08
2.22965e+01  1.76434e-02  2.39056e-05  1.38377e-08
2.29756e+01  1.81808e-02  2.46340e-05  1.42577e-08
2.36753e+01  1.87345e-02  2.53847e-05  1.46904e-08
2.43963e+01  1.93051e-02  2.61583e-05  1.51362e-08
2.51393e+01  1.98931e-02  2.69555e-05  1.55954e-08
2.59049e+01  2.04990e-02  2.77770e-05  1.60685e-08
2.66938e+01  2.11233e-02  2.86235e-05  1.65560e-08
2.75068e+01  2.17667e-02  2.94959e-05  1.70581e-08
2.83445e+01  2.24297e-02  3.03948e-05  1.75754e-08
2.92077e+01  2.31128e-02  3.13212e-05  1.81084e-08
3.00972e+01  2.38168e-02  3.22759e-05  1.86574e-08
3.10138e+01  2.45422e-02  3.32596e-05  1.92230e-08
3.19583e+01  2.52897e-02  3.42734e-05  1.98057e-08
3.29316e+01  2.60600e-02  3.53181e-05  2.04059e-08
3.39345e+01  2.68537e-02  3.63947e-05  2.10242e-08
3.49679e+01  2.76717e-02  3.75041e-05  2.16612e-08
3.60329e+01  2.85145e-02  3.86473e-05  2.23174e-08
3.71302e+01  2.93830e-02  3.98255e-05  2.29933e-08
3.82610e+01  3.02780e-02  4.10396e-05  2.36896e-08
3.94262e+01  3.12002e-02  4.22908e-05  2.44068e-08
4.06270e+01  3.21505e-02  4.35801e-05  2.51456e-08
4.18642e+01  3.31298e-02  4.49088e-05  2.59067e-08
4.31392e+01  3.41389e-02  4.62781e-05  2.66906e-08
4.44530e+01  3.51788e-02  4.76891e-05  2.74981e-08
4.58068e+01  3.62503e-02  4.91433e-05  2.83299e-08
4.72018e+01  3.73545e-02  5.06418e-05  2.91866e-08
4.86393e+01  3.84923e-02  5.21861e-05  3.00691e-08
5.01206e+01  3.96648e-02  5.37775e-05  3.09780e-08
5.16470e+01  4.08730e-02  5.54176e-05  3.19143e-08
5.32199e+01  4.21180e-02  5.71077e-05  3.28785e-08
5.48407e+01  4.34010e-02  5.88495e-05  3.38717e-08
5.65108e+01  4.47230e-02  6.06444e-05  3.48946e-08
5.82318e+01  4.60853e-02  6.24942e-05  3.59481e-08
6.00052e+01  4.74891e-02  6.44005e-05  3.70332e-08
6.18327e+01  4.89357e-02  6.63651e-05  3.81507e-08
6.37157e+01  5.04264e-02  6.83897e-05  3.93016e-08
6.56562e+01  5.19624e-02  7.04762e-05  4.04869e-08
6.76557e+01  5.35453e-02  7.26264e-05  4.17076e-08
6.97161e+01  5.51764e-02  7.48424e-05  4.29646e-08
7.18393e+01  5.68573e-02  7.71261e-05  4.42592e-08
7.40271e+01  5.85893e-02  7.94796e-05  4.55923e-08
7.62816e+01  6.03741e-02  8.19052e-05  4.69652e-08
7.86047e+01  6.22133e-02  8.44049e-05  4.83788e-08
8.09986e+01  6.41085e-02  8.69810e-05  4.98345e-08
8.34654e+01  6.60615e-02  8.96360e-05  5.13335e-08
8.60073e+01  6.80740e-02  9.23722e-05  5.28770e-08
8.86266e+01  7.01479e-02  9.51921e-05  5.44663e-08
9.13257e+01  7.22849e-02  9.80984e-05  5.61027e-08
9.41069e+01  7.44871e-02  1.01094e-04  5.77875e-08
9.69729e+01  7.67563e-02  1.04180e-04  5.95223e-08
9.99262e+01  7.90948e-02  1.07362e-04  6.13083e-08
1.02969e+02  8.15045e-02  1.10641e-04  6.31471e-08
1.06105e+02  8.39876e-02  1.14020e-04  6.50402e-08
1.09337e+02  8.65465e-02  1.17503e-04  6.69891e-08
1.12666e+02  8.91833e-02  1.21092e-04  6.89955e-08
1.16098e+02  9.19005e-02  1.24792e-04  7.10609e-08
1.19633e+02  9.47005e-02  1.28605e-04  7.31871e-08
1.23277e+02  9.75859e-02  1.32535e-04  7.53757e-08
1.27031e+02  1.00559e-01  1.36585e-04  7.76286e-08
1.30900e+02  1.03623e-01  1.40760e-04  7.99476e-08
1.34886e+02  1.06781e-01  1.45063e-04  8.23344e-08
1.38994e+02  1.10034e-01  1.49498e-04  8.47912e-08
1.43227e+02  1.13387e-01  1.54069e-04  8.73197e-08
1.47589e+02  1.16842e-01  1.58780e-04  8.99220e-08
1.52084e+02  1.20402e-01  1.63636e-04  9.26002e-08
1.56715e+02  1.24071e-01  1.68641e-04  9.53565e-08
1.61488e+02  1.27852e-01  1.73800e-04  9.81929e-08
1.66406e+02  1.31748e-01  1.79118e-04  1.01112e-07
1.71474e+02  1.35763e-01  1.84599e-04  1.04115e-07
1.76696e+02  1.39900e-01  1.90249e-04  1.07206e-07
1.82077e+02  1.44164e-01  1.96073e-04  1.10386e-07
1.87622e+02  1.48557e-01  2.02076e-04  1.13659e-07
1.93336e+02  1.53085e-01  2.08263e-04  1.17025e-07
1.99224e+02  1.57750e-01  2.14642e-04  1.20489e-07
2.05292e+02  1.62558e-01  2.21217e-04  1.24053e-07
2.11544e+02  1.67513e-01  2.27995e-04  1.27719e-07
2.17986e+02  1.72618e-01  2.34981e-04  1.31491e-07
2.24625e+02  1.77880e-01  2.42184e-04  1.35371e-07
2.31466e+02  1.83302e-01  2.49609e-04  1.39363e-07
2.38515e+02  1.88889e-01  2.57263e-04  1.43469e-07
2.45779e+02  1.94647e-01  2.65153e-04  1.47693e-07
2.53264e+02  2.00580e-01  2.73288e-04  1.52038e-07
2.60977e+02  2.06695e-01  2.81674e-04  1.56507e-07
2.68925e+02  2.12996e-01  2.90320e-04  1.61104e-07
2.77115e+02  2.19489e-01  2.99234e-04  1.65832e-07
2.85554e+02  2.26181e-01  3.08424e-04  1.70695e-07
2.94251e+02  2.33076e-01  3.17899e-04  1.75697e-07
3.03212e+02  2.40183e-01  3.27668e-04  1.80843e-07
3.12446e+02  2.47506e-01  3.37740e-04  1.86135e-07
3.21961e+02  2.55052e-01  3.48125e-04  1.91579e-07
3.31767e+02  2.62830e-01  3.58834e-04  1.97178e-07
3.41870e+02  2.70844e-01  3.69876e-04  2.02938e-07
3.52282e+02  2.79103e-01  3.81261e-04  2.08863e-07
3.63010e+02  2.87615e-01  3.93002e-04  2.14959e-07
3.74066e+02  2.96386e-01  4.05110e-04  2.21231e-07
3.85458e+02  3.05426e-01  4.17595e-04  2.27683e-07
3.97197e+02  3.14741e-01  4.30472e-04  2.34323e-07
4.09293e+02  3.24341e-01  4.43751e-04  2.41157e-07
4.21758e+02  3.34234e-01  4.57447e-04  2.48190e-07
4.34602e+02  3.44430e-01  4.71572e-04  2.55431e-07
4.47838e+02  3.54937e-01  4.86142e-04  2.62886e-07
4.61477e+02  3.65765e-01  5.01170e-04  2.70564e-07
[...]
4.62593e+03  1.40419e+05  2.62507e+01  1.07828e-02
4.67242e+03  1.41536e+05  2.62749e+01  1.05818e-02
4.71938e+03  1.42652e+05  2.62989e+01  1.04043e-02
4.76681e+03  1.43770e+05  2.63228e+01  1.02515e-02
4.81471e+03  1.44887e+05  2.63465e+01  1.01234e-02
4.86310e+03  1.46006e+05  2.63700e+01  1.00187e-02
4.91198e+03  1.47125e+05  2.63934e+01  9.93533e-03
4.96134e+03  1.48244e+05  2.64167e+01  9.87001e-03
5.01121e+03  1.49364e+05  2.64397e+01  9.81896e-03
5.06157e+03  1.50485e+05  2.64627e+01  9.77792e-03
5.11244e+03  1.51606e+05  2.64855e+01  9.74251e-03
5.16382e+03  1.52727e+05  2.65081e+01  9.70841e-03
5.21572e+03  1.53849e+05  2.65307e+01  9.67159e-03
5.26814e+03  1.54972e+05  2.65530e+01  9.62845e-03
5.32108e+03  1.56095e+05  2.65753e+01  9.57593e-03
5.37456e+03  1.57219e+05  2.65974e+01  9.51161e-03
5.42857e+03  1.58343e+05  2.66194e+01  9.43370e-03
5.48313e+03  1.59468e+05  2.66413e+01  9.34106e-03
5.53824e+03  1.60593e+05  2.66631e+01  9.23319e-03
5.59390e+03  1.61719e+05  2.66847e+01  9.11021e-03
5.65012e+03  1.62845e+05  2.67063e+01  8.97281e-03
5.70690e+03  1.63972e+05  2.67277e+01  8.82223e-03
5.76426e+03  1.65100e+05  2.67489e+01  8.66023e-03
5.82219e+03  1.66228e+05  2.67701e+01  8.48904e-03
5.88070e+03  1.67356e+05  2.67911e+01  8.31138e-03
5.93981e+03  1.68485e+05  2.68121e+01  8.13038e-03
5.99950e+03  1.69614e+05  2.68328e+01  7.94962e-03
6.05980e+03  1.70744e+05  2.68535e+01  7.77305e-03
6.12070e+03  1.71875e+05  2.68741e+01  7.60497e-03
6.18221e+03  1.73006e+05  2.68945e+01  7.44997e-03
6.24435e+03  1.74137e+05  2.69147e+01  7.31280e-03
6.30710e+03  1.75270e+05  2.69349e+01  7.19827e-03
6.37049e+03  1.76402e+05  2.69549e+01  7.11100e-03
6.43451e+03  1.77535e+05  2.69748e+01  7.05525e-03
6.49918e+03  1.78669e+05  2.69946e+01  7.03462e-03
6.56450e+03  1.79803e+05  2.70142e+01  7.05187e-03
6.63048e+03  1.80937e+05  2.70338e+01  7.10867e-03
6.69711e+03  1.82072e+05  2.70532e+01  7.20555e-03
6.76442e+03  1.83208e+05  2.70724e+01  7.34187e-03
6.83240e+03  1.84344e+05  2.70916e+01  7.51590e-03
6.90107e+03  1.85480e+05  2.71106e+01  7.72501e-03
6.97043e+03  1.86617e+05  2.71296e+01  7.96590e-03
7.04048e+03  1.87755e+05  2.71484e+01  8.23479e-03
7.11124e+03  1.88893e+05  2.71671e+01  8.52768e-03
7.18271e+03  1.90032e+05  2.71857e+01  8.84047e-03
7.25490e+03  1.91171e+05  2.72042e+01  9.16911e-03
7.32781e+03  1.92310e+05  2.72227e+01  9.50972e-03
7.40145e+03  1.93450e+05  2.72410e+01  9.85860e-03
7.47584e+03  1.94591e+05  2.72593e+01  1.02123e-02
7.55097e+03  1.95732e+05  2.72775e+01  1.05676e-02
7.62686e+03  1.96873e+05  2.72956e+01  1.09215e-02
7.70351e+03  1.98015e+05  2.73137e+01  1.12713e-02
7.78093e+03  1.99158e+05  2.73317e+01  1.16144e-02
7.85913e+03  2.00300e+05  2.73497e+01  1.19484e-02
7.93812e+03  2.01444e+05  2.73676e+01  1.22713e-02
8.01790e+03  2.02588e+05  2.73854e+01  1.25809e-02
8.09848e+03  2.03732e+05  2.74032e+01  1.28754e-02
8.17987e+03  2.04877e+05  2.74210e+01  1.31529e-02
8.26208e+03  2.06022e+05  2.74387e+01  1.34119e-02
8.34512e+03  2.07168e+05  2.74564e+01  1.36505e-02
8.42899e+03  2.08315e+05  2.74741e+01  1.38673e-02
8.51370e+03  2.09462e+05  2.74917e+01  1.40607e-02
8.59926e+03  2.10609e+05  2.75093e+01  1.42292e-02
8.68569e+03  2.11757e+05  2.75269e+01  1.43714e-02
8.77298e+03  2.12905e+05  2.75444e+01  1.44859e-02
8.86115e+03  2.14054e+05  2.75619e+01  1.45711e-02
8.95021e+03  2.15203e+05  2.75794e+01  1.46258e-02
9.04016e+03  2.16353e+05  2.75968e+01  1.46487e-02
9.13101e+03  2.17503e+05  2.76143e+01  1.46385e-02
9.22278e+03  2.18654e+05  2.76317e+01  1.45941e-02
9.31547e+03  2.19805e+05  2.76491e+01  1.45145e-02