Folder: NIST_SRSW_Data/CO2_REF_ISOTHERMS/AIF

File: co2_cubtc_300K.aif
data_CO2_CuBTC_300K
_exptl_date 2022-08-20
_exptl_temperature 300
_adsnt_material_id CuBTC
_adsnt_filename 'data.CuBTC_CaleroIV_rep111'
_units_temperature K
_units_fugacity BAR
_units_pressure BAR
_units_loading MOL-PER-KiloGM
_units_qst KiloJ-PER-MOL
_exptl_isotherm_type absolute
_exptl_adsorptive_name 'Carbon Dioxide'
_forcefield_adsorptive 'TraPPE CO2; 12ang linear-force shift'
_forcefield_adsnt 'see adsorbent file'

loop_
_adsorp_fugacity
_adsorp_pressure
_adsorp_amount
_adsorp_amount_uncertainty
_adsorp_qst
_adsorp_qst_uncertainty
2.758e-04   2.759e-04   9.480e-04   2.452e-05   2.390e+01   4.228e-02
3.128e-04   3.129e-04   1.075e-03   2.776e-05   2.390e+01   4.215e-02
3.548e-04   3.549e-04   1.219e-03   3.142e-05   2.390e+01   4.201e-02
4.023e-04   4.025e-04   1.383e-03   3.556e-05   2.390e+01   4.186e-02
4.563e-04   4.564e-04   1.568e-03   4.022e-05   2.390e+01   4.168e-02
5.175e-04   5.176e-04   1.778e-03   4.549e-05   2.390e+01   4.148e-02
5.869e-04   5.871e-04   2.017e-03   5.142e-05   2.390e+01   4.126e-02
6.656e-04   6.658e-04   2.287e-03   5.809e-05   2.390e+01   4.101e-02
7.549e-04   7.551e-04   2.594e-03   6.561e-05   2.390e+01   4.073e-02
8.561e-04   8.563e-04   2.941e-03   7.405e-05   2.390e+01   4.041e-02
9.709e-04   9.712e-04   3.335e-03   8.353e-05   2.390e+01   4.006e-02
1.101e-03   1.101e-03   3.782e-03   9.415e-05   2.390e+01   3.967e-02
1.249e-03   1.249e-03   4.289e-03   1.060e-04   2.390e+01   3.923e-02
1.416e-03   1.417e-03   4.864e-03   1.193e-04   2.390e+01   3.874e-02
1.606e-03   1.607e-03   5.516e-03   1.341e-04   2.390e+01   3.820e-02
1.822e-03   1.822e-03   6.254e-03   1.506e-04   2.390e+01   3.760e-02
2.066e-03   2.066e-03   7.092e-03   1.688e-04   2.390e+01   3.694e-02
2.343e-03   2.344e-03   8.042e-03   1.890e-04   2.390e+01   3.622e-02
2.657e-03   2.658e-03   9.119e-03   2.112e-04   2.390e+01   3.544e-02
3.013e-03   3.014e-03   1.034e-02   2.356e-04   2.390e+01   3.459e-02
3.418e-03   3.419e-03   1.172e-02   2.623e-04   2.390e+01   3.368e-02
3.876e-03   3.877e-03   1.329e-02   2.913e-04   2.390e+01   3.271e-02
4.396e-03   4.397e-03   1.507e-02   3.226e-04   2.390e+01   3.169e-02
4.985e-03   4.987e-03   1.708e-02   3.563e-04   2.390e+01   3.064e-02
5.654e-03   5.655e-03   1.937e-02   3.923e-04   2.390e+01   2.956e-02
6.412e-03   6.414e-03   2.195e-02   4.304e-04   2.390e+01   2.849e-02
7.272e-03   7.274e-03   2.488e-02   4.705e-04   2.390e+01   2.743e-02
8.247e-03   8.249e-03   2.820e-02   5.123e-04   2.390e+01   2.643e-02
9.353e-03   9.356e-03   3.196e-02   5.557e-04   2.390e+01   2.549e-02
1.061e-02   1.061e-02   3.621e-02   6.006e-04   2.390e+01   2.464e-02
1.203e-02   1.203e-02   4.103e-02   6.472e-04   2.390e+01   2.388e-02
1.364e-02   1.365e-02   4.648e-02   6.958e-04   2.390e+01   2.316e-02
1.547e-02   1.548e-02   5.265e-02   7.478e-04   2.390e+01   2.245e-02
1.755e-02   1.755e-02   5.963e-02   8.050e-04   2.390e+01   2.164e-02
1.990e-02   1.991e-02   6.752e-02   8.705e-04   2.390e+01   2.062e-02
2.257e-02   2.258e-02   7.643e-02   9.481e-04   2.389e+01   1.924e-02
2.560e-02   2.561e-02   8.650e-02   1.042e-03   2.389e+01   1.736e-02
2.903e-02   2.904e-02   9.786e-02   1.157e-03   2.389e+01   1.488e-02
3.292e-02   3.294e-02   1.107e-01   1.294e-03   2.389e+01   1.174e-02
3.734e-02   3.735e-02   1.251e-01   1.452e-03   2.389e+01   8.201e-03
4.234e-02   4.236e-02   1.414e-01   1.628e-03   2.388e+01   5.792e-03
4.802e-02   4.804e-02   1.598e-01   1.814e-03   2.388e+01   8.045e-03
5.446e-02   5.449e-02   1.804e-01   2.002e-03   2.387e+01   1.363e-02
6.177e-02   6.180e-02   2.036e-01   2.186e-03   2.387e+01   2.018e-02
7.005e-02   7.009e-02   2.296e-01   2.371e-03   2.386e+01   2.668e-02
7.944e-02   7.949e-02   2.587e-01   2.571e-03   2.385e+01   3.237e-02
9.010e-02   9.015e-02   2.914e-01   2.812e-03   2.383e+01   3.641e-02
1.022e-01   1.022e-01   3.280e-01   3.114e-03   2.382e+01   3.800e-02
1.159e-01   1.160e-01   3.689e-01   3.468e-03   2.380e+01   3.645e-02
1.314e-01   1.315e-01   4.145e-01   3.821e-03   2.378e+01   3.146e-02
1.490e-01   1.492e-01   4.653e-01   4.071e-03   2.375e+01   2.370e-02
1.690e-01   1.692e-01   5.217e-01   4.090e-03   2.372e+01   1.683e-02
1.917e-01   1.919e-01   5.845e-01   3.744e-03   2.368e+01   1.959e-02
2.174e-01   2.177e-01   6.540e-01   2.932e-03   2.363e+01   3.043e-02
2.466e-01   2.469e-01   7.309e-01   1.709e-03   2.357e+01   4.120e-02
2.796e-01   2.800e-01   8.159e-01   1.440e-03   2.351e+01   4.762e-02
3.171e-01   3.176e-01   9.096e-01   3.412e-03   2.344e+01   4.710e-02
3.597e-01   3.603e-01   1.013e+00   5.677e-03   2.337e+01   3.900e-02
4.079e-01   4.087e-01   1.127e+00   7.359e-03   2.328e+01   2.845e-02
4.626e-01   4.636e-01   1.252e+00   7.849e-03   2.318e+01   2.956e-02
5.246e-01   5.259e-01   1.390e+00   6.989e-03   2.307e+01   3.809e-02
5.950e-01   5.966e-01   1.541e+00   5.389e-03   2.294e+01   3.645e-02
6.748e-01   6.768e-01   1.708e+00   4.040e-03   2.279e+01   3.100e-02
7.653e-01   7.678e-01   1.890e+00   2.850e-03   2.262e+01   5.455e-02
8.679e-01   8.712e-01   2.091e+00   1.694e-03   2.245e+01   7.830e-02
9.843e-01   9.885e-01   2.311e+00   3.283e-03   2.227e+01   6.853e-02
1.116e+00   1.122e+00   2.554e+00   4.918e-03   2.211e+01   2.241e-02
1.266e+00   1.273e+00   2.823e+00   4.340e-03   2.196e+01   4.003e-02
1.436e+00   1.444e+00   3.121e+00   1.672e-03   2.184e+01   7.618e-02
1.628e+00   1.639e+00   3.453e+00   2.776e-03   2.174e+01   6.872e-02
1.847e+00   1.861e+00   3.825e+00   5.670e-03   2.168e+01   3.296e-02
2.094e+00   2.113e+00   4.243e+00   7.228e-03   2.167e+01   3.634e-02
2.375e+00   2.399e+00   4.712e+00   8.050e-03   2.170e+01   3.369e-02
2.694e+00   2.724e+00   5.235e+00   9.932e-03   2.179e+01   4.836e-03
3.055e+00   3.094e+00   5.817e+00   1.089e-02   2.197e+01   3.492e-02
3.465e+00   3.514e+00   6.462e+00   1.158e-02   2.223e+01   3.207e-02
3.929e+00   3.993e+00   7.163e+00   9.162e-03   2.256e+01   4.708e-02
4.456e+00   4.538e+00   7.902e+00   1.320e-02   2.295e+01   7.015e-02
5.054e+00   5.160e+00   8.659e+00   2.291e-02   2.343e+01   2.717e-02
5.732e+00   5.868e+00   9.412e+00   2.409e-02   2.397e+01   5.068e-02
6.500e+00   6.676e+00   1.014e+01   1.621e-02   2.453e+01   5.177e-02
7.372e+00   7.599e+00   1.083e+01   7.371e-03   2.509e+01   8.914e-02
8.360e+00   8.654e+00   1.147e+01   1.141e-02   2.567e+01   6.296e-02
9.482e+00   9.862e+00   1.205e+01   1.389e-02   2.625e+01   2.652e-02
1.075e+01   1.125e+01   1.258e+01   1.315e-02   2.678e+01   3.764e-02
1.220e+01   1.284e+01   1.306e+01   1.277e-02   2.725e+01   9.193e-02
1.383e+01   1.467e+01   1.350e+01   1.501e-02   2.772e+01   1.231e-01
1.569e+01   1.678e+01   1.390e+01   1.548e-02   2.818e+01   1.130e-01
1.779e+01   1.922e+01   1.426e+01   1.487e-02   2.860e+01   6.623e-02
2.017e+01   2.205e+01   1.460e+01   1.662e-02   2.894e+01   6.946e-02
2.288e+01   2.535e+01   1.491e+01   1.877e-02   2.922e+01   1.156e-01
2.595e+01   2.923e+01   1.520e+01   1.867e-02   2.949e+01   1.190e-01
2.943e+01   3.380e+01   1.547e+01   1.620e-02   2.979e+01   1.022e-01
3.337e+01   3.925e+01   1.572e+01   1.248e-02   3.010e+01   9.904e-02
3.785e+01   4.584e+01   1.596e+01   9.097e-03   3.040e+01   1.376e-01
4.293e+01   5.397e+01   1.619e+01   7.039e-03   3.066e+01   1.884e-01
4.868e+01   6.434e+01   1.641e+01   5.803e-03   3.083e+01   1.552e-01
5.521e+01   7.853e+01   1.661e+01   7.325e-03   3.092e+01   1.183e-01
6.262e+01   1.035e+02   1.680e+01   1.262e-02   3.097e+01   2.095e-01
7.101e+01   1.500e+02   1.699e+01   1.809e-02   3.102e+01   2.351e-01

File: co2_cubtc_350K.aif
data_CO2_CuBTC_350K
_exptl_date 2022-09-16
_exptl_temperature 350
_adsnt_material_id CuBTC
_simltn_adsorbent_filename 'data.CuBTC_CaleroIV_rep111'
_units_temperature K
_units_fugacity BAR
_units_pressure BAR
_units_loading MOL-PER-KiloGM
_units_qst KiloJ-PER-MOL
_exptl_isotherm_type absolute
_exptl_adsorptive_name 'Carbon Dioxide'
_simltn_forcefield_adsorptive 'TraPPE CO2; 12ang linear-force shift'
_simltn_forcefield_adsorbent 'see adsorbent file'

loop_
_adsorp_fugacity
_adsorp_pressure
_adsorp_amount
_adsorp_amount_uncertainty
_adsorp_qst
_adsorp_qst_uncertainty
1.794e-03   1.795e-03   1.615e-03   1.300e-05   2.257e+01   7.264e-02
2.004e-03   2.006e-03   1.804e-03   1.449e-05   2.257e+01   7.239e-02
2.240e-03   2.241e-03   2.016e-03   1.615e-05   2.257e+01   7.212e-02
2.502e-03   2.504e-03   2.252e-03   1.798e-05   2.257e+01   7.181e-02
2.796e-03   2.798e-03   2.516e-03   2.002e-05   2.257e+01   7.147e-02
3.124e-03   3.126e-03   2.811e-03   2.228e-05   2.257e+01   7.109e-02
3.491e-03   3.493e-03   3.141e-03   2.478e-05   2.257e+01   7.067e-02
3.900e-03   3.903e-03   3.509e-03   2.755e-05   2.257e+01   7.021e-02
4.358e-03   4.361e-03   3.921e-03   3.062e-05   2.257e+01   6.969e-02
4.869e-03   4.873e-03   4.380e-03   3.400e-05   2.257e+01   6.912e-02
5.440e-03   5.444e-03   4.894e-03   3.774e-05   2.257e+01   6.849e-02
6.079e-03   6.083e-03   5.467e-03   4.185e-05   2.257e+01   6.779e-02
6.792e-03   6.797e-03   6.108e-03   4.638e-05   2.257e+01   6.703e-02
7.589e-03   7.595e-03   6.823e-03   5.136e-05   2.257e+01   6.619e-02
8.480e-03   8.486e-03   7.623e-03   5.682e-05   2.256e+01   6.526e-02
9.475e-03   9.481e-03   8.515e-03   6.280e-05   2.256e+01   6.425e-02
1.059e-02   1.059e-02   9.512e-03   6.935e-05   2.256e+01   6.315e-02
1.183e-02   1.184e-02   1.063e-02   7.650e-05   2.256e+01   6.194e-02
1.322e-02   1.323e-02   1.187e-02   8.431e-05   2.256e+01   6.064e-02
1.477e-02   1.478e-02   1.326e-02   9.282e-05   2.256e+01   5.923e-02
1.650e-02   1.651e-02   1.481e-02   1.021e-04   2.256e+01   5.772e-02
1.844e-02   1.845e-02   1.654e-02   1.122e-04   2.256e+01   5.611e-02
2.060e-02   2.061e-02   1.847e-02   1.233e-04   2.255e+01   5.439e-02
2.302e-02   2.303e-02   2.063e-02   1.354e-04   2.255e+01   5.259e-02
2.572e-02   2.574e-02   2.304e-02   1.487e-04   2.255e+01   5.071e-02
2.873e-02   2.876e-02   2.572e-02   1.635e-04   2.255e+01   4.878e-02
3.211e-02   3.213e-02   2.872e-02   1.801e-04   2.254e+01   4.681e-02
3.587e-02   3.590e-02   3.207e-02   1.988e-04   2.254e+01   4.486e-02
4.008e-02   4.012e-02   3.580e-02   2.203e-04   2.254e+01   4.296e-02
4.479e-02   4.482e-02   3.997e-02   2.453e-04   2.253e+01   4.116e-02
5.004e-02   5.008e-02   4.461e-02   2.746e-04   2.253e+01   3.953e-02
5.591e-02   5.596e-02   4.980e-02   3.095e-04   2.252e+01   3.812e-02
6.247e-02   6.253e-02   5.557e-02   3.511e-04   2.252e+01   3.697e-02
6.981e-02   6.987e-02   6.201e-02   4.010e-04   2.251e+01   3.612e-02
7.800e-02   7.807e-02   6.919e-02   4.607e-04   2.251e+01   3.557e-02
8.715e-02   8.723e-02   7.719e-02   5.316e-04   2.250e+01   3.529e-02
9.737e-02   9.746e-02   8.610e-02   6.152e-04   2.249e+01   3.522e-02
1.088e-01   1.089e-01   9.602e-02   7.123e-04   2.249e+01   3.524e-02
1.216e-01   1.217e-01   1.071e-01   8.236e-04   2.248e+01   3.527e-02
1.358e-01   1.360e-01   1.194e-01   9.487e-04   2.247e+01   3.519e-02
1.518e-01   1.519e-01   1.331e-01   1.086e-03   2.246e+01   3.493e-02
1.696e-01   1.698e-01   1.483e-01   1.234e-03   2.245e+01   3.446e-02
1.895e-01   1.897e-01   1.653e-01   1.386e-03   2.244e+01   3.381e-02
2.117e-01   2.120e-01   1.841e-01   1.538e-03   2.242e+01   3.312e-02
2.366e-01   2.368e-01   2.050e-01   1.681e-03   2.241e+01   3.258e-02
2.643e-01   2.647e-01   2.283e-01   1.807e-03   2.239e+01   3.244e-02
2.953e-01   2.957e-01   2.541e-01   1.906e-03   2.237e+01   3.291e-02
3.300e-01   3.305e-01   2.827e-01   1.971e-03   2.235e+01   3.406e-02
3.687e-01   3.693e-01   3.144e-01   2.001e-03   2.233e+01   3.576e-02
4.120e-01   4.126e-01   3.495e-01   2.004e-03   2.230e+01   3.771e-02
4.603e-01   4.611e-01   3.882e-01   2.004e-03   2.227e+01   3.948e-02
5.143e-01   5.153e-01   4.310e-01   2.037e-03   2.223e+01   4.063e-02
5.747e-01   5.758e-01   4.782e-01   2.148e-03   2.219e+01   4.080e-02
6.421e-01   6.435e-01   5.302e-01   2.360e-03   2.215e+01   3.979e-02
7.174e-01   7.191e-01   5.874e-01   2.661e-03   2.210e+01   3.770e-02
8.016e-01   8.036e-01   6.504e-01   3.000e-03   2.205e+01   3.498e-02
8.957e-01   8.981e-01   7.196e-01   3.311e-03   2.199e+01   3.232e-02
1.001e+00   1.004e+00   7.956e-01   3.527e-03   2.193e+01   3.019e-02
1.118e+00   1.122e+00   8.790e-01   3.588e-03   2.186e+01   2.854e-02
1.249e+00   1.254e+00   9.704e-01   3.451e-03   2.179e+01   2.707e-02
1.396e+00   1.401e+00   1.071e+00   3.105e-03   2.172e+01   2.592e-02
1.560e+00   1.566e+00   1.181e+00   2.659e-03   2.164e+01   2.518e-02
1.743e+00   1.751e+00   1.301e+00   2.462e-03   2.156e+01   2.384e-02
1.947e+00   1.957e+00   1.432e+00   2.831e-03   2.148e+01   2.075e-02
2.176e+00   2.188e+00   1.576e+00   3.418e-03   2.139e+01   1.944e-02
2.431e+00   2.446e+00   1.734e+00   3.645e-03   2.131e+01   2.688e-02
2.716e+00   2.735e+00   1.906e+00   3.257e-03   2.123e+01   3.665e-02
3.035e+00   3.058e+00   2.094e+00   2.583e-03   2.115e+01   3.871e-02
3.391e+00   3.419e+00   2.299e+00   2.578e-03   2.107e+01   3.162e-02
3.789e+00   3.824e+00   2.524e+00   3.439e-03   2.100e+01   2.613e-02
4.234e+00   4.277e+00   2.769e+00   4.427e-03   2.094e+01   2.734e-02
4.731e+00   4.784e+00   3.038e+00   4.926e-03   2.090e+01   2.496e-02
5.286e+00   5.352e+00   3.330e+00   4.447e-03   2.089e+01   1.689e-02
5.906e+00   5.988e+00   3.649e+00   3.704e-03   2.090e+01   4.829e-03
6.599e+00   6.701e+00   3.995e+00   4.429e-03   2.094e+01   1.543e-02
7.373e+00   7.501e+00   4.372e+00   5.370e-03   2.101e+01   2.733e-02
8.238e+00   8.398e+00   4.779e+00   4.682e-03   2.111e+01   3.206e-02
9.205e+00   9.404e+00   5.218e+00   2.668e-03   2.124e+01   3.566e-02
1.029e+01   1.053e+01   5.685e+00   4.927e-03   2.142e+01   4.391e-02
1.149e+01   1.180e+01   6.179e+00   9.240e-03   2.165e+01   3.974e-02
1.284e+01   1.323e+01   6.696e+00   1.064e-02   2.192e+01   2.444e-02
1.435e+01   1.484e+01   7.231e+00   8.057e-03   2.222e+01   4.896e-02
1.603e+01   1.665e+01   7.777e+00   4.451e-03   2.255e+01   7.990e-02
1.791e+01   1.869e+01   8.325e+00   8.258e-03   2.292e+01   7.766e-02
2.001e+01   2.099e+01   8.868e+00   1.215e-02   2.332e+01   3.932e-02
2.236e+01   2.359e+01   9.399e+00   1.177e-02   2.373e+01   5.751e-02
2.499e+01   2.654e+01   9.913e+00   9.121e-03   2.414e+01   6.142e-02
2.792e+01   2.988e+01   1.041e+01   7.545e-03   2.456e+01   4.016e-02
3.119e+01   3.368e+01   1.088e+01   7.134e-03   2.498e+01   1.962e-02
3.485e+01   3.801e+01   1.132e+01   6.859e-03   2.540e+01   2.120e-02
3.894e+01   4.296e+01   1.174e+01   5.764e-03   2.580e+01   4.659e-02
4.351e+01   4.864e+01   1.214e+01   4.471e-03   2.619e+01   3.560e-02
4.862e+01   5.518e+01   1.251e+01   4.088e-03   2.655e+01   2.615e-02
5.432e+01   6.276e+01   1.287e+01   4.236e-03   2.691e+01   7.251e-02
6.070e+01   7.160e+01   1.320e+01   4.593e-03   2.725e+01   1.144e-01
6.782e+01   8.199e+01   1.351e+01   6.334e-03   2.758e+01   1.280e-01
7.578e+01   9.434e+01   1.381e+01   8.595e-03   2.789e+01   9.810e-02
8.467e+01   1.092e+02   1.409e+01   9.736e-03   2.816e+01   6.059e-02
9.461e+01   1.274e+02   1.436e+01   9.718e-03   2.841e+01   6.548e-02
1.057e+02   1.500e+02   1.461e+01   8.804e-03   2.864e+01   1.282e-01

File: co2_irmof1_300K.aif
data_CO2_IRMOF1_300K
_exptl_date 2022-08-20
_exptl_temperature 300
_adsnt_material_id IRMOF-1
_simltn_adsorbent_filename 'data.IRMOF1_mCBAC_rep111'
_units_temperature K
_units_fugacity BAR
_units_pressure BAR
_units_loading MOL-PER-KiloGM
_units_qst KiloJ-PER-MOL
_exptl_isotherm_type absolute
_exptl_adsorptive_name 'Carbon Dioxide'
_simltn_forcefield_adsorptive 'TraPPE CO2; 12ang linear-force shift'
_simltn_forcefield_adsorbent 'see adsorbent file'

loop_
_adsorp_fugacity
_adsorp_pressure
_adsorp_amount
_adsorp_amount_uncertainty
_adsorp_qst
_adsorp_qst_uncertainty
2.758e-04   2.759e-04   1.828e-04   9.820e-07   1.412e+01   2.272e-02
3.128e-04   3.129e-04   2.074e-04   1.113e-06   1.412e+01   2.271e-02
3.548e-04   3.549e-04   2.352e-04   1.262e-06   1.412e+01   2.271e-02
4.023e-04   4.025e-04   2.667e-04   1.431e-06   1.412e+01   2.270e-02
4.563e-04   4.564e-04   3.025e-04   1.622e-06   1.412e+01   2.269e-02
5.175e-04   5.176e-04   3.430e-04   1.838e-06   1.412e+01   2.268e-02
5.869e-04   5.871e-04   3.890e-04   2.084e-06   1.412e+01   2.267e-02
6.656e-04   6.658e-04   4.412e-04   2.362e-06   1.412e+01   2.266e-02
7.549e-04   7.551e-04   5.004e-04   2.676e-06   1.412e+01   2.265e-02
8.561e-04   8.563e-04   5.675e-04   3.032e-06   1.412e+01   2.264e-02
9.709e-04   9.712e-04   6.436e-04   3.436e-06   1.412e+01   2.262e-02
1.101e-03   1.101e-03   7.299e-04   3.892e-06   1.412e+01   2.260e-02
1.249e-03   1.249e-03   8.278e-04   4.408e-06   1.412e+01   2.258e-02
1.416e-03   1.417e-03   9.388e-04   4.992e-06   1.412e+01   2.256e-02
1.606e-03   1.607e-03   1.065e-03   5.652e-06   1.412e+01   2.253e-02
1.822e-03   1.822e-03   1.208e-03   6.398e-06   1.412e+01   2.250e-02
2.066e-03   2.066e-03   1.369e-03   7.241e-06   1.412e+01   2.247e-02
2.343e-03   2.344e-03   1.553e-03   8.192e-06   1.412e+01   2.243e-02
2.657e-03   2.658e-03   1.761e-03   9.265e-06   1.412e+01   2.239e-02
3.013e-03   3.014e-03   1.998e-03   1.048e-05   1.412e+01   2.234e-02
3.418e-03   3.419e-03   2.266e-03   1.184e-05   1.412e+01   2.229e-02
3.876e-03   3.877e-03   2.569e-03   1.337e-05   1.412e+01   2.222e-02
4.396e-03   4.397e-03   2.914e-03   1.510e-05   1.412e+01   2.216e-02
4.985e-03   4.987e-03   3.305e-03   1.704e-05   1.412e+01   2.208e-02
5.654e-03   5.655e-03   3.748e-03   1.922e-05   1.412e+01   2.199e-02
6.412e-03   6.414e-03   4.251e-03   2.166e-05   1.412e+01   2.190e-02
7.272e-03   7.274e-03   4.821e-03   2.438e-05   1.412e+01   2.179e-02
8.247e-03   8.249e-03   5.468e-03   2.743e-05   1.412e+01   2.167e-02
9.353e-03   9.356e-03   6.201e-03   3.083e-05   1.412e+01   2.154e-02
1.061e-02   1.061e-02   7.033e-03   3.461e-05   1.412e+01   2.140e-02
1.203e-02   1.203e-02   7.976e-03   3.881e-05   1.412e+01   2.124e-02
1.364e-02   1.365e-02   9.046e-03   4.347e-05   1.412e+01   2.107e-02
1.547e-02   1.548e-02   1.026e-02   4.861e-05   1.412e+01   2.088e-02
1.755e-02   1.755e-02   1.164e-02   5.428e-05   1.412e+01   2.068e-02
1.990e-02   1.991e-02   1.320e-02   6.052e-05   1.412e+01   2.046e-02
2.257e-02   2.258e-02   1.497e-02   6.738e-05   1.412e+01   2.024e-02
2.560e-02   2.561e-02   1.698e-02   7.491e-05   1.412e+01   2.000e-02
2.903e-02   2.904e-02   1.925e-02   8.318e-05   1.412e+01   1.977e-02
3.292e-02   3.294e-02   2.184e-02   9.227e-05   1.412e+01   1.954e-02
3.734e-02   3.735e-02   2.477e-02   1.023e-04   1.412e+01   1.932e-02
4.234e-02   4.236e-02   2.809e-02   1.136e-04   1.412e+01   1.913e-02
4.802e-02   4.804e-02   3.186e-02   1.263e-04   1.412e+01   1.898e-02
5.446e-02   5.449e-02   3.614e-02   1.409e-04   1.412e+01   1.890e-02
6.177e-02   6.180e-02   4.099e-02   1.581e-04   1.412e+01   1.889e-02
7.005e-02   7.009e-02   4.650e-02   1.788e-04   1.412e+01   1.898e-02
7.944e-02   7.949e-02   5.274e-02   2.042e-04   1.412e+01   1.920e-02
9.010e-02   9.015e-02   5.982e-02   2.359e-04   1.412e+01   1.955e-02
1.022e-01   1.022e-01   6.786e-02   2.759e-04   1.413e+01   2.005e-02
1.159e-01   1.160e-01   7.698e-02   3.262e-04   1.413e+01   2.069e-02
1.314e-01   1.315e-01   8.733e-02   3.893e-04   1.413e+01   2.144e-02
1.490e-01   1.492e-01   9.907e-02   4.676e-04   1.413e+01   2.229e-02
1.690e-01   1.692e-01   1.124e-01   5.634e-04   1.413e+01   2.316e-02
1.917e-01   1.919e-01   1.275e-01   6.789e-04   1.413e+01   2.400e-02
2.174e-01   2.177e-01   1.447e-01   8.157e-04   1.413e+01   2.473e-02
2.466e-01   2.469e-01   1.642e-01   9.747e-04   1.413e+01   2.525e-02
2.796e-01   2.800e-01   1.863e-01   1.156e-03   1.414e+01   2.548e-02
3.171e-01   3.176e-01   2.114e-01   1.357e-03   1.414e+01   2.531e-02
3.597e-01   3.603e-01   2.399e-01   1.574e-03   1.414e+01   2.470e-02
4.079e-01   4.087e-01   2.723e-01   1.799e-03   1.415e+01   2.360e-02
4.626e-01   4.636e-01   3.090e-01   2.024e-03   1.415e+01   2.207e-02
5.246e-01   5.259e-01   3.508e-01   2.235e-03   1.415e+01   2.025e-02
5.950e-01   5.966e-01   3.983e-01   2.415e-03   1.416e+01   1.843e-02
6.748e-01   6.768e-01   4.524e-01   2.547e-03   1.417e+01   1.709e-02
7.653e-01   7.678e-01   5.138e-01   2.616e-03   1.417e+01   1.676e-02
8.679e-01   8.712e-01   5.837e-01   2.612e-03   1.418e+01   1.766e-02
9.843e-01   9.885e-01   6.633e-01   2.544e-03   1.419e+01   1.938e-02
1.116e+00   1.122e+00   7.540e-01   2.457e-03   1.420e+01   2.110e-02
1.266e+00   1.273e+00   8.573e-01   2.449e-03   1.422e+01   2.196e-02
1.436e+00   1.444e+00   9.751e-01   2.646e-03   1.423e+01   2.149e-02
1.628e+00   1.639e+00   1.110e+00   3.085e-03   1.425e+01   1.995e-02
1.847e+00   1.861e+00   1.263e+00   3.649e-03   1.427e+01   1.841e-02
2.094e+00   2.113e+00   1.438e+00   4.135e-03   1.430e+01   1.805e-02
2.375e+00   2.399e+00   1.639e+00   4.373e-03   1.433e+01   1.905e-02
2.694e+00   2.724e+00   1.869e+00   4.349e-03   1.436e+01   2.037e-02
3.055e+00   3.094e+00   2.133e+00   4.289e-03   1.440e+01   2.051e-02
3.465e+00   3.514e+00   2.437e+00   4.491e-03   1.446e+01   1.780e-02
3.929e+00   3.993e+00   2.788e+00   4.903e-03   1.452e+01   1.215e-02
4.456e+00   4.538e+00   3.194e+00   5.214e-03   1.460e+01   1.006e-02
5.054e+00   5.160e+00   3.664e+00   5.458e-03   1.470e+01   1.077e-02
5.732e+00   5.868e+00   4.210e+00   6.693e-03   1.483e+01   6.319e-03
6.500e+00   6.676e+00   4.845e+00   9.527e-03   1.499e+01   1.196e-02
7.372e+00   7.599e+00   5.589e+00   1.103e-02   1.520e+01   1.566e-02
8.360e+00   8.654e+00   6.463e+00   8.022e-03   1.545e+01   9.148e-03
9.482e+00   9.862e+00   7.490e+00   3.884e-03   1.578e+01   1.027e-02
1.075e+01   1.125e+01   8.693e+00   5.114e-03   1.620e+01   1.216e-02
1.220e+01   1.284e+01   1.008e+01   9.808e-03   1.671e+01   3.198e-02
1.383e+01   1.467e+01   1.163e+01   2.430e-02   1.734e+01   2.621e-02
1.569e+01   1.678e+01   1.330e+01   2.283e-02   1.808e+01   1.203e-02
1.779e+01   1.922e+01   1.497e+01   8.539e-03   1.888e+01   2.242e-02
2.017e+01   2.205e+01   1.656e+01   7.195e-03   1.973e+01   1.831e-02
2.288e+01   2.535e+01   1.799e+01   1.019e-02   2.060e+01   1.804e-02
2.595e+01   2.923e+01   1.926e+01   1.342e-02   2.144e+01   2.286e-02
2.943e+01   3.380e+01   2.037e+01   1.340e-02   2.221e+01   3.129e-02
3.337e+01   3.925e+01   2.133e+01   1.343e-02   2.294e+01   5.693e-02
3.785e+01   4.584e+01   2.218e+01   1.522e-02   2.360e+01   1.532e-02
4.293e+01   5.397e+01   2.293e+01   1.618e-02   2.420e+01   2.963e-02
4.868e+01   6.434e+01   2.361e+01   1.493e-02   2.476e+01   6.875e-02
5.521e+01   7.853e+01   2.423e+01   1.222e-02   2.530e+01   1.034e-01
6.262e+01   1.035e+02   2.480e+01   9.575e-03   2.580e+01   1.005e-01
7.101e+01   1.500e+02   2.532e+01   1.042e-02   2.623e+01   8.812e-02