Folder: NIST_SRSW_Data/CO2_REF_ISOTHERMS/AIF (part 2)

File: co2_irmof1_350K.aif
data_CO2_IRMOF1_350K
_exptl_date 2022-09-16
_exptl_temperature 350
_adsnt_material_id IRMOF-1
_adsnt_filename 'data.IRMOF1_mCBAC_rep111'
_units_temperature K
_units_pressure BAR
_units_loading MOL_PER_KG
_units_qst KiloJ_PER_MOL
_exptl_isotherm_type absolute
_exptl_adsorptive_name 'Carbon Dioxide'
_forcefield_adsorptive 'TraPPE CO2; 12ang linear-force shift'
_forcefield_adsnt 'see adsorbent file'

loop_
_adsorp_fugacity
_adsorp_pressure
_adsorp_amount
_adsorp_amount_uncertainty
_adsorp_qst
_adsorp_qst_uncertainty
-1.711e+01   1.795e-03   5.437e-04   1.848e-06   1.330e+01   2.561e-02
-1.700e+01   2.006e-03   6.075e-04   2.064e-06   1.330e+01   2.560e-02
-1.689e+01   2.241e-03   6.788e-04   2.305e-06   1.330e+01   2.560e-02
-1.678e+01   2.504e-03   7.585e-04   2.574e-06   1.330e+01   2.559e-02
-1.667e+01   2.798e-03   8.475e-04   2.875e-06   1.330e+01   2.559e-02
-1.655e+01   3.126e-03   9.469e-04   3.210e-06   1.330e+01   2.558e-02
-1.644e+01   3.493e-03   1.058e-03   3.583e-06   1.330e+01   2.557e-02
-1.633e+01   3.903e-03   1.182e-03   4.000e-06   1.330e+01   2.556e-02
-1.622e+01   4.361e-03   1.321e-03   4.465e-06   1.330e+01   2.555e-02
-1.611e+01   4.873e-03   1.476e-03   4.983e-06   1.330e+01   2.554e-02
-1.600e+01   5.444e-03   1.649e-03   5.561e-06   1.330e+01   2.553e-02
-1.589e+01   6.083e-03   1.843e-03   6.205e-06   1.330e+01   2.552e-02
-1.578e+01   6.797e-03   2.059e-03   6.923e-06   1.330e+01   2.550e-02
-1.567e+01   7.595e-03   2.300e-03   7.722e-06   1.330e+01   2.549e-02
-1.556e+01   8.486e-03   2.570e-03   8.612e-06   1.330e+01   2.547e-02
-1.544e+01   9.481e-03   2.872e-03   9.602e-06   1.330e+01   2.545e-02
-1.533e+01   1.059e-02   3.209e-03   1.070e-05   1.330e+01   2.542e-02
-1.522e+01   1.184e-02   3.586e-03   1.193e-05   1.330e+01   2.539e-02
-1.511e+01   1.323e-02   4.006e-03   1.329e-05   1.330e+01   2.537e-02
-1.500e+01   1.478e-02   4.476e-03   1.480e-05   1.330e+01   2.533e-02
-1.489e+01   1.651e-02   5.002e-03   1.648e-05   1.330e+01   2.529e-02
-1.478e+01   1.845e-02   5.589e-03   1.834e-05   1.330e+01   2.525e-02
-1.467e+01   2.061e-02   6.244e-03   2.040e-05   1.330e+01   2.520e-02
-1.456e+01   2.303e-02   6.977e-03   2.268e-05   1.330e+01   2.515e-02
-1.445e+01   2.574e-02   7.796e-03   2.521e-05   1.330e+01   2.509e-02
-1.434e+01   2.876e-02   8.711e-03   2.800e-05   1.330e+01   2.502e-02
-1.422e+01   3.213e-02   9.733e-03   3.109e-05   1.330e+01   2.495e-02
-1.411e+01   3.590e-02   1.088e-02   3.449e-05   1.330e+01   2.486e-02
-1.400e+01   4.012e-02   1.215e-02   3.824e-05   1.330e+01   2.477e-02
-1.389e+01   4.482e-02   1.358e-02   4.236e-05   1.330e+01   2.466e-02
-1.378e+01   5.008e-02   1.517e-02   4.690e-05   1.330e+01   2.454e-02
-1.367e+01   5.596e-02   1.695e-02   5.189e-05   1.330e+01   2.440e-02
-1.356e+01   6.253e-02   1.894e-02   5.736e-05   1.330e+01   2.425e-02
-1.345e+01   6.987e-02   2.116e-02   6.337e-05   1.330e+01   2.408e-02
-1.334e+01   7.807e-02   2.365e-02   6.996e-05   1.330e+01   2.388e-02
-1.323e+01   8.723e-02   2.642e-02   7.720e-05   1.330e+01   2.366e-02
-1.311e+01   9.746e-02   2.953e-02   8.515e-05   1.330e+01   2.341e-02
-1.300e+01   1.089e-01   3.299e-02   9.392e-05   1.330e+01   2.313e-02
-1.289e+01   1.217e-01   3.687e-02   1.036e-04   1.331e+01   2.281e-02
-1.278e+01   1.360e-01   4.119e-02   1.144e-04   1.331e+01   2.246e-02
-1.267e+01   1.519e-01   4.603e-02   1.264e-04   1.331e+01   2.206e-02
-1.256e+01   1.698e-01   5.144e-02   1.399e-04   1.331e+01   2.162e-02
-1.245e+01   1.897e-01   5.748e-02   1.552e-04   1.331e+01   2.112e-02
-1.234e+01   2.120e-01   6.423e-02   1.727e-04   1.331e+01   2.057e-02
-1.223e+01   2.368e-01   7.177e-02   1.930e-04   1.331e+01   1.997e-02
-1.212e+01   2.647e-01   8.021e-02   2.167e-04   1.332e+01   1.931e-02
-1.201e+01   2.957e-01   8.963e-02   2.445e-04   1.332e+01   1.860e-02
-1.189e+01   3.305e-01   1.002e-01   2.772e-04   1.332e+01   1.783e-02
-1.178e+01   3.693e-01   1.119e-01   3.158e-04   1.332e+01   1.703e-02
-1.167e+01   4.126e-01   1.251e-01   3.613e-04   1.333e+01   1.620e-02
-1.156e+01   4.611e-01   1.398e-01   4.145e-04   1.333e+01   1.535e-02
-1.145e+01   5.153e-01   1.563e-01   4.763e-04   1.333e+01   1.453e-02
-1.134e+01   5.758e-01   1.747e-01   5.472e-04   1.334e+01   1.374e-02
-1.123e+01   6.435e-01   1.952e-01   6.273e-04   1.334e+01   1.301e-02
-1.112e+01   7.191e-01   2.182e-01   7.162e-04   1.335e+01   1.238e-02
-1.101e+01   8.036e-01   2.440e-01   8.129e-04   1.335e+01   1.187e-02
-1.090e+01   8.981e-01   2.727e-01   9.156e-04   1.336e+01   1.148e-02
-1.078e+01   1.004e+00   3.049e-01   1.022e-03   1.337e+01   1.122e-02
-1.067e+01   1.122e+00   3.409e-01   1.128e-03   1.337e+01   1.110e-02
-1.056e+01   1.254e+00   3.812e-01   1.233e-03   1.338e+01   1.113e-02
-1.045e+01   1.401e+00   4.262e-01   1.333e-03   1.339e+01   1.131e-02
-1.034e+01   1.566e+00   4.766e-01   1.427e-03   1.340e+01   1.161e-02
-1.023e+01   1.751e+00   5.330e-01   1.514e-03   1.341e+01   1.196e-02
-1.012e+01   1.957e+00   5.961e-01   1.593e-03   1.343e+01   1.224e-02
-1.001e+01   2.188e+00   6.667e-01   1.656e-03   1.344e+01   1.230e-02
-9.897e+00   2.446e+00   7.457e-01   1.690e-03   1.346e+01   1.203e-02
-9.786e+00   2.735e+00   8.342e-01   1.674e-03   1.347e+01   1.137e-02
-9.675e+00   3.058e+00   9.333e-01   1.580e-03   1.350e+01   1.036e-02
-9.564e+00   3.419e+00   1.044e+00   1.385e-03   1.352e+01   9.087e-03
-9.453e+00   3.824e+00   1.169e+00   1.089e-03   1.355e+01   7.775e-03
-9.343e+00   4.277e+00   1.309e+00   7.928e-04   1.358e+01   6.943e-03
-9.232e+00   4.784e+00   1.465e+00   8.304e-04   1.362e+01   7.438e-03
-9.121e+00   5.352e+00   1.641e+00   1.278e-03   1.366e+01   9.199e-03
-9.010e+00   5.988e+00   1.838e+00   1.774e-03   1.371e+01   1.084e-02
-8.899e+00   6.701e+00   2.059e+00   2.119e-03   1.376e+01   1.092e-02
-8.788e+00   7.501e+00   2.308e+00   2.392e-03   1.382e+01   8.941e-03
-8.677e+00   8.398e+00   2.586e+00   2.968e-03   1.389e+01   6.764e-03
-8.566e+00   9.404e+00   2.899e+00   3.909e-03   1.397e+01   8.956e-03
-8.455e+00   1.053e+01   3.251e+00   4.637e-03   1.407e+01   1.302e-02
-8.344e+00   1.180e+01   3.645e+00   4.624e-03   1.418e+01   1.478e-02
-8.233e+00   1.323e+01   4.088e+00   3.935e-03   1.430e+01   1.509e-02
-8.122e+00   1.484e+01   4.586e+00   3.022e-03   1.445e+01   1.734e-02
-8.011e+00   1.665e+01   5.143e+00   3.069e-03   1.463e+01   1.821e-02
-7.900e+00   1.869e+01   5.768e+00   5.170e-03   1.484e+01   1.208e-02
-7.789e+00   2.099e+01   6.463e+00   6.366e-03   1.508e+01   3.062e-03
-7.678e+00   2.359e+01   7.233e+00   4.193e-03   1.535e+01   1.819e-02
-7.567e+00   2.654e+01   8.077e+00   5.760e-03   1.567e+01   3.051e-02
-7.456e+00   2.988e+01   8.994e+00   1.174e-02   1.603e+01   2.891e-02
-7.345e+00   3.368e+01   9.980e+00   1.275e-02   1.645e+01   1.473e-02
-7.234e+00   3.801e+01   1.102e+01   9.464e-03   1.691e+01   2.069e-02
-7.124e+00   4.296e+01   1.210e+01   9.336e-03   1.741e+01   2.682e-02
-7.013e+00   4.864e+01   1.319e+01   7.918e-03   1.794e+01   9.233e-03
-6.902e+00   5.518e+01   1.426e+01   3.139e-03   1.849e+01   2.375e-02
-6.791e+00   6.276e+01   1.530e+01   4.379e-03   1.906e+01   2.824e-02
-6.680e+00   7.160e+01   1.629e+01   4.215e-03   1.964e+01   1.774e-02
-6.569e+00   8.199e+01   1.723e+01   3.154e-03   2.022e+01   1.559e-02
-6.458e+00   9.434e+01   1.811e+01   5.546e-03   2.078e+01   1.784e-02
-6.347e+00   1.092e+02   1.892e+01   7.493e-03   2.131e+01   3.601e-02
-6.236e+00   1.274e+02   1.968e+01   7.469e-03   2.181e+01   4.770e-02
-6.125e+00   1.500e+02   2.038e+01   7.894e-03   2.231e+01   3.864e-02

File: co2_uio66_300K.aif
data_CO2_UiO66_300K
_exptl_date 2022-09-01
_exptl_temperature 300
_adsnt_material_id UiO-66
_adsnt_filename 'data.UiO66_Snurr_rep222'
_units_temperature K
_units_fugacity BAR
_units_pressure BAR
_units_loading MOL-PER-KiloGM
_units_qst KiloJ-PER-MOL
_exptl_isotherm_type absolute
_exptl_adsorptive_name 'Carbon Dioxide'
_forcefield_adsorptive 'TraPPE CO2; 12ang linear-force shift'
_forcefield_adsnt 'see adsorbent file'

loop_
_adsorp_fugacity
_adsorp_pressure
_adsorp_amount
_adsorp_amount_uncertainty
_adsorp_qst
_adsorp_qst_uncertainty
2.758e-04   2.759e-04   1.104e-03   6.579e-05   2.368e+01   2.347e-03
3.128e-04   3.129e-04   1.252e-03   7.502e-05   2.368e+01   2.326e-03
3.548e-04   3.549e-04   1.419e-03   8.559e-05   2.368e+01   2.308e-03
4.023e-04   4.025e-04   1.609e-03   9.770e-05   2.368e+01   2.294e-03
4.563e-04   4.564e-04   1.824e-03   1.116e-04   2.368e+01   2.286e-03
5.175e-04   5.176e-04   2.067e-03   1.276e-04   2.368e+01   2.288e-03
5.869e-04   5.871e-04   2.343e-03   1.459e-04   2.368e+01   2.300e-03
6.656e-04   6.658e-04   2.655e-03   1.670e-04   2.368e+01   2.325e-03
7.549e-04   7.551e-04   3.008e-03   1.912e-04   2.368e+01   2.366e-03
8.561e-04   8.563e-04   3.409e-03   2.191e-04   2.368e+01   2.424e-03
9.709e-04   9.712e-04   3.862e-03   2.511e-04   2.368e+01   2.500e-03
1.101e-03   1.101e-03   4.375e-03   2.879e-04   2.368e+01   2.594e-03
1.249e-03   1.249e-03   4.956e-03   3.302e-04   2.368e+01   2.706e-03
1.416e-03   1.417e-03   5.613e-03   3.787e-04   2.369e+01   2.834e-03
1.606e-03   1.607e-03   6.356e-03   4.342e-04   2.369e+01   2.977e-03
1.822e-03   1.822e-03   7.198e-03   4.974e-04   2.369e+01   3.134e-03
2.066e-03   2.066e-03   8.149e-03   5.692e-04   2.369e+01   3.307e-03
2.343e-03   2.344e-03   9.225e-03   6.502e-04   2.369e+01   3.500e-03
2.657e-03   2.658e-03   1.044e-02   7.412e-04   2.369e+01   3.720e-03
3.013e-03   3.014e-03   1.182e-02   8.422e-04   2.370e+01   3.978e-03
3.418e-03   3.419e-03   1.338e-02   9.535e-04   2.370e+01   4.290e-03
3.876e-03   3.877e-03   1.514e-02   1.074e-03   2.370e+01   4.670e-03
4.396e-03   4.397e-03   1.713e-02   1.204e-03   2.370e+01   5.132e-03
4.985e-03   4.987e-03   1.938e-02   1.339e-03   2.371e+01   5.674e-03
5.654e-03   5.655e-03   2.193e-02   1.478e-03   2.371e+01   6.286e-03
6.412e-03   6.414e-03   2.482e-02   1.615e-03   2.372e+01   6.933e-03
7.272e-03   7.274e-03   2.808e-02   1.746e-03   2.372e+01   7.565e-03
8.247e-03   8.249e-03   3.178e-02   1.863e-03   2.373e+01   8.110e-03
9.353e-03   9.356e-03   3.596e-02   1.958e-03   2.373e+01   8.485e-03
1.061e-02   1.061e-02   4.069e-02   2.023e-03   2.374e+01   8.606e-03
1.203e-02   1.203e-02   4.605e-02   2.049e-03   2.374e+01   8.417e-03
1.364e-02   1.365e-02   5.210e-02   2.032e-03   2.375e+01   7.940e-03
1.547e-02   1.548e-02   5.894e-02   1.968e-03   2.376e+01   7.330e-03
1.755e-02   1.755e-02   6.668e-02   1.861e-03   2.377e+01   6.889e-03
1.990e-02   1.991e-02   7.540e-02   1.723e-03   2.378e+01   6.852e-03
2.257e-02   2.258e-02   8.525e-02   1.575e-03   2.380e+01   7.029e-03
2.560e-02   2.561e-02   9.634e-02   1.450e-03   2.381e+01   6.847e-03
2.903e-02   2.904e-02   1.088e-01   1.399e-03   2.383e+01   5.830e-03
3.292e-02   3.294e-02   1.228e-01   1.473e-03   2.385e+01   4.147e-03
3.734e-02   3.735e-02   1.386e-01   1.688e-03   2.387e+01   3.645e-03
4.234e-02   4.236e-02   1.562e-01   1.995e-03   2.390e+01   5.716e-03
4.802e-02   4.804e-02   1.759e-01   2.306e-03   2.393e+01   8.312e-03
5.446e-02   5.449e-02   1.981e-01   2.536e-03   2.396e+01   1.097e-02
6.177e-02   6.180e-02   2.229e-01   2.609e-03   2.399e+01   1.444e-02
7.005e-02   7.009e-02   2.506e-01   2.454e-03   2.403e+01   1.825e-02
7.944e-02   7.949e-02   2.815e-01   2.084e-03   2.407e+01   2.026e-02
9.010e-02   9.015e-02   3.157e-01   2.010e-03   2.412e+01   1.968e-02
1.022e-01   1.022e-01   3.536e-01   2.904e-03   2.417e+01   1.963e-02
1.159e-01   1.160e-01   3.953e-01   4.003e-03   2.423e+01   2.135e-02
1.314e-01   1.315e-01   4.414e-01   4.342e-03   2.429e+01   1.861e-02
1.490e-01   1.492e-01   4.921e-01   3.673e-03   2.436e+01   9.820e-03
1.690e-01   1.692e-01   5.478e-01   2.535e-03   2.444e+01   1.162e-02
1.917e-01   1.919e-01   6.088e-01   1.861e-03   2.452e+01   1.341e-02
2.174e-01   2.177e-01   6.753e-01   2.163e-03   2.461e+01   9.383e-03
2.466e-01   2.469e-01   7.475e-01   2.666e-03   2.470e+01   2.129e-02
2.796e-01   2.800e-01   8.256e-01   2.780e-03   2.480e+01   2.647e-02
3.171e-01   3.176e-01   9.095e-01   2.739e-03   2.490e+01   2.505e-02
3.597e-01   3.603e-01   9.995e-01   2.472e-03   2.501e+01   3.438e-02
4.079e-01   4.087e-01   1.096e+00   2.070e-03   2.512e+01   4.259e-02
4.626e-01   4.636e-01   1.199e+00   2.850e-03   2.525e+01   3.609e-02
5.246e-01   5.259e-01   1.308e+00   3.924e-03   2.538e+01   1.899e-02
5.950e-01   5.966e-01   1.422e+00   3.833e-03   2.549e+01   3.269e-02
6.748e-01   6.768e-01   1.541e+00   2.909e-03   2.560e+01   3.444e-02
7.653e-01   7.678e-01   1.665e+00   2.321e-03   2.572e+01   5.663e-02
8.679e-01   8.712e-01   1.793e+00   2.826e-03   2.582e+01   3.353e-02
9.843e-01   9.885e-01   1.927e+00   2.885e-03   2.590e+01   4.510e-02
1.116e+00   1.122e+00   2.064e+00   2.811e-03   2.597e+01   1.911e-02
1.266e+00   1.273e+00   2.205e+00   2.314e-03   2.605e+01   4.970e-02
1.436e+00   1.444e+00   2.350e+00   1.407e-03   2.611e+01   5.512e-02
1.628e+00   1.639e+00   2.499e+00   8.692e-04   2.615e+01   4.384e-02
1.847e+00   1.861e+00   2.652e+00   8.505e-04   2.617e+01   6.474e-02
2.094e+00   2.113e+00   2.808e+00   1.159e-03   2.616e+01   2.479e-02
2.375e+00   2.399e+00   2.967e+00   7.905e-04   2.609e+01   8.116e-02
2.694e+00   2.724e+00   3.127e+00   1.502e-03   2.604e+01   1.954e-02
3.055e+00   3.094e+00   3.290e+00   2.072e-03   2.604e+01   3.082e-02
3.465e+00   3.514e+00   3.455e+00   6.323e-04   2.596e+01   9.852e-02
3.929e+00   3.993e+00   3.620e+00   2.353e-03   2.578e+01   6.664e-02
4.456e+00   4.538e+00   3.786e+00   2.921e-03   2.567e+01   4.531e-02
5.054e+00   5.160e+00   3.953e+00   3.395e-03   2.562e+01   1.006e-01
5.732e+00   5.868e+00   4.119e+00   3.121e-03   2.552e+01   9.800e-02
6.500e+00   6.676e+00   4.285e+00   2.946e-03   2.546e+01   6.813e-02
7.372e+00   7.599e+00   4.449e+00   3.868e-03   2.538e+01   1.753e-01
8.360e+00   8.654e+00   4.610e+00   2.819e-03   2.519e+01   1.146e-01
9.482e+00   9.862e+00   4.766e+00   7.606e-04   2.509e+01   2.086e-01
1.075e+01   1.125e+01   4.918e+00   1.431e-03   2.511e+01   1.936e-01
1.220e+01   1.284e+01   5.067e+00   2.623e-03   2.510e+01   1.853e-01
1.383e+01   1.467e+01   5.212e+00   2.923e-03   2.500e+01   1.881e-01
1.569e+01   1.678e+01   5.349e+00   1.739e-03   2.482e+01   1.698e-01
1.779e+01   1.922e+01   5.481e+00   1.536e-03   2.475e+01   1.214e-01
2.017e+01   2.205e+01   5.607e+00   7.698e-04   2.480e+01   1.855e-01
2.288e+01   2.535e+01   5.729e+00   1.824e-03   2.479e+01   1.488e-01
2.595e+01   2.923e+01   5.845e+00   2.379e-03   2.472e+01   1.491e-01
2.943e+01   3.380e+01   5.955e+00   1.695e-03   2.459e+01   2.317e-01
3.337e+01   3.925e+01   6.061e+00   8.636e-04   2.451e+01   1.891e-01
3.785e+01   4.584e+01   6.163e+00   2.255e-03   2.457e+01   3.399e-01
4.293e+01   5.397e+01   6.262e+00   3.764e-03   2.463e+01   2.251e-01
4.868e+01   6.434e+01   6.358e+00   4.114e-03   2.464e+01   2.294e-01
5.521e+01   7.853e+01   6.451e+00   3.581e-03   2.468e+01   2.965e-01
6.262e+01   1.035e+02   6.542e+00   3.200e-03   2.469e+01   2.886e-01
7.101e+01   1.500e+02   6.632e+00   3.294e-03   2.464e+01   1.832e-01

File: co2_uio66_350K.aif
data_CO2_UiO66_350K
_exptl_date 2022-09-18
_exptl_temperature 350
_adsorbent_material_id UiO-66
_adsorbent_filename 'data.UiO66_Snurr_rep222'
_units_temperature K
_units_pressure BAR
_units_loading MOL_PER_KG
_units_qst KiloJ_PER_MOL
_isotherm_type absolute
_exptl_adsorptive_name 'Carbon Dioxide'
_forcefield_asorptive 'TraPPE CO2; 12ang linear-force shift'
_forcefield_adsorbent 'see adsorbent file'

loop_
_adsorp_fugacity
_adsorp_pressure
_adsorp_amount
_adsorp_amount_uncertainty
_adsorp_qst
_adsorp_qst_uncertainty
-1.711e+01   1.795e-03   1.788e-03   7.929e-05   2.346e+01   8.079e-03
-1.700e+01   2.006e-03   1.998e-03   8.805e-05   2.346e+01   7.852e-03
-1.689e+01   2.241e-03   2.233e-03   9.772e-05   2.346e+01   7.611e-03
-1.678e+01   2.504e-03   2.496e-03   1.084e-04   2.346e+01   7.360e-03
-1.667e+01   2.798e-03   2.789e-03   1.201e-04   2.346e+01   7.100e-03
-1.655e+01   3.126e-03   3.117e-03   1.329e-04   2.346e+01   6.834e-03
-1.644e+01   3.493e-03   3.484e-03   1.469e-04   2.346e+01   6.568e-03
-1.633e+01   3.903e-03   3.893e-03   1.622e-04   2.346e+01   6.307e-03
-1.622e+01   4.361e-03   4.351e-03   1.788e-04   2.346e+01   6.059e-03
-1.611e+01   4.873e-03   4.863e-03   1.968e-04   2.346e+01   5.833e-03
-1.600e+01   5.444e-03   5.435e-03   2.163e-04   2.346e+01   5.637e-03
-1.589e+01   6.083e-03   6.074e-03   2.372e-04   2.346e+01   5.481e-03
-1.578e+01   6.797e-03   6.788e-03   2.595e-04   2.346e+01   5.372e-03
-1.567e+01   7.595e-03   7.586e-03   2.833e-04   2.347e+01   5.315e-03
-1.556e+01   8.486e-03   8.478e-03   3.084e-04   2.347e+01   5.309e-03
-1.544e+01   9.481e-03   9.473e-03   3.347e-04   2.347e+01   5.348e-03
-1.533e+01   1.059e-02   1.058e-02   3.622e-04   2.347e+01   5.423e-03
-1.522e+01   1.184e-02   1.183e-02   3.904e-04   2.347e+01   5.519e-03
-1.511e+01   1.323e-02   1.321e-02   4.193e-04   2.347e+01   5.623e-03
-1.500e+01   1.478e-02   1.476e-02   4.486e-04   2.347e+01   5.721e-03
-1.489e+01   1.651e-02   1.648e-02   4.778e-04   2.347e+01   5.807e-03
-1.478e+01   1.845e-02   1.840e-02   5.066e-04   2.348e+01   5.881e-03
-1.467e+01   2.061e-02   2.054e-02   5.345e-04   2.348e+01   5.958e-03
-1.456e+01   2.303e-02   2.293e-02   5.612e-04   2.348e+01   6.065e-03
-1.445e+01   2.574e-02   2.558e-02   5.861e-04   2.348e+01   6.246e-03
-1.434e+01   2.876e-02   2.854e-02   6.084e-04   2.348e+01   6.547e-03
-1.422e+01   3.213e-02   3.183e-02   6.272e-04   2.349e+01   7.007e-03
-1.411e+01   3.590e-02   3.549e-02   6.414e-04   2.349e+01   7.628e-03
-1.400e+01   4.012e-02   3.956e-02   6.495e-04   2.349e+01   8.361e-03
-1.389e+01   4.482e-02   4.409e-02   6.501e-04   2.350e+01   9.098e-03
-1.378e+01   5.008e-02   4.912e-02   6.419e-04   2.350e+01   9.677e-03
-1.367e+01   5.596e-02   5.472e-02   6.250e-04   2.351e+01   9.896e-03
-1.356e+01   6.253e-02   6.093e-02   6.013e-04   2.351e+01   9.534e-03
-1.345e+01   6.987e-02   6.785e-02   5.749e-04   2.352e+01   8.399e-03
-1.334e+01   7.807e-02   7.554e-02   5.510e-04   2.353e+01   6.393e-03
-1.323e+01   8.723e-02   8.409e-02   5.329e-04   2.353e+01   3.613e-03
-1.311e+01   9.746e-02   9.360e-02   5.190e-04   2.354e+01   1.204e-03
-1.300e+01   1.089e-01   1.042e-01   5.029e-04   2.355e+01   3.773e-03
-1.289e+01   1.217e-01   1.159e-01   4.812e-04   2.356e+01   6.680e-03
-1.278e+01   1.360e-01   1.289e-01   4.639e-04   2.358e+01   8.481e-03
-1.267e+01   1.519e-01   1.433e-01   4.769e-04   2.359e+01   8.720e-03
-1.256e+01   1.698e-01   1.592e-01   5.370e-04   2.361e+01   7.471e-03
-1.245e+01   1.897e-01   1.768e-01   6.231e-04   2.362e+01   5.890e-03
-1.234e+01   2.120e-01   1.961e-01   6.932e-04   2.364e+01   6.526e-03
-1.223e+01   2.368e-01   2.174e-01   7.117e-04   2.366e+01   9.084e-03
-1.212e+01   2.647e-01   2.409e-01   6.614e-04   2.369e+01   1.088e-02
-1.201e+01   2.957e-01   2.666e-01   5.704e-04   2.372e+01   1.114e-02
-1.189e+01   3.305e-01   2.948e-01   5.844e-04   2.374e+01   1.172e-02
-1.178e+01   3.693e-01   3.256e-01   8.348e-04   2.378e+01   1.395e-02
-1.167e+01   4.126e-01   3.591e-01   1.179e-03   2.381e+01   1.509e-02
-1.156e+01   4.611e-01   3.956e-01   1.439e-03   2.384e+01   1.245e-02
-1.145e+01   5.153e-01   4.352e-01   1.562e-03   2.388e+01   7.981e-03
-1.134e+01   5.758e-01   4.782e-01   1.694e-03   2.392e+01   1.094e-02
-1.123e+01   6.435e-01   5.248e-01   2.035e-03   2.397e+01   1.470e-02
-1.112e+01   7.191e-01   5.750e-01   2.484e-03   2.402e+01   1.146e-02
-1.101e+01   8.036e-01   6.292e-01   2.802e-03   2.407e+01   6.234e-03
-1.090e+01   8.981e-01   6.874e-01   2.849e-03   2.412e+01   1.038e-02
-1.078e+01   1.004e+00   7.498e-01   2.538e-03   2.419e+01   1.260e-02
-1.067e+01   1.122e+00   8.166e-01   1.867e-03   2.425e+01   8.845e-03
-1.056e+01   1.254e+00   8.875e-01   9.752e-04   2.431e+01   1.003e-02
-1.045e+01   1.401e+00   9.620e-01   5.283e-04   2.436e+01   2.686e-02
-1.034e+01   1.566e+00   1.040e+00   9.839e-04   2.443e+01   3.222e-02
-1.023e+01   1.751e+00   1.122e+00   1.732e-03   2.450e+01   1.818e-02
-1.012e+01   1.957e+00   1.209e+00   2.967e-03   2.457e+01   1.544e-02
-1.001e+01   2.188e+00   1.300e+00   3.965e-03   2.463e+01   3.384e-02
-9.897e+00   2.446e+00   1.395e+00   4.465e-03   2.469e+01   2.723e-02
-9.786e+00   2.735e+00   1.494e+00   4.283e-03   2.474e+01   3.304e-02
-9.675e+00   3.058e+00   1.598e+00   3.349e-03   2.479e+01   5.771e-02
-9.564e+00   3.419e+00   1.704e+00   2.657e-03   2.483e+01   2.583e-02
-9.453e+00   3.824e+00   1.815e+00   2.298e-03   2.488e+01   5.790e-02
-9.343e+00   4.277e+00   1.929e+00   2.108e-03   2.494e+01   6.561e-02
-9.232e+00   4.784e+00   2.047e+00   2.422e-03   2.498e+01   2.484e-02
-9.121e+00   5.352e+00   2.170e+00   2.106e-03   2.500e+01   2.274e-02
-9.010e+00   5.988e+00   2.295e+00   1.665e-03   2.500e+01   2.920e-02
-8.899e+00   6.701e+00   2.423e+00   1.418e-03   2.502e+01   4.623e-02
-8.788e+00   7.501e+00   2.556e+00   1.721e-03   2.503e+01   3.614e-02
-8.677e+00   8.398e+00   2.691e+00   1.924e-03   2.504e+01   3.131e-02
-8.566e+00   9.404e+00   2.829e+00   1.857e-03   2.503e+01   5.059e-02
-8.455e+00   1.053e+01   2.970e+00   2.678e-03   2.501e+01   5.645e-02
-8.344e+00   1.180e+01   3.112e+00   3.694e-03   2.500e+01   4.988e-02
-8.233e+00   1.323e+01   3.258e+00   3.333e-03   2.502e+01   3.867e-02
-8.122e+00   1.484e+01   3.405e+00   2.766e-03   2.503e+01   1.200e-02
-8.011e+00   1.665e+01   3.554e+00   2.567e-03   2.504e+01   3.857e-02
-7.900e+00   1.869e+01   3.704e+00   1.756e-03   2.503e+01   5.257e-02
-7.789e+00   2.099e+01   3.854e+00   1.920e-03   2.505e+01   3.713e-02
-7.678e+00   2.359e+01   4.004e+00   1.207e-03   2.513e+01   9.875e-02
-7.567e+00   2.654e+01   4.153e+00   1.235e-03   2.519e+01   4.006e-02
-7.456e+00   2.988e+01   4.301e+00   1.946e-03   2.514e+01   5.324e-02
-7.345e+00   3.368e+01   4.446e+00   2.337e-03   2.511e+01   1.344e-01
-7.234e+00   3.801e+01   4.588e+00   2.604e-03   2.514e+01   7.158e-02
-7.124e+00   4.296e+01   4.728e+00   1.775e-03   2.520e+01   1.677e-01
-7.013e+00   4.864e+01   4.865e+00   1.553e-03   2.527e+01   7.720e-02
-6.902e+00   5.518e+01   4.999e+00   2.448e-03   2.530e+01   1.134e-01
-6.791e+00   6.276e+01   5.129e+00   3.556e-03   2.529e+01   1.006e-01
-6.680e+00   7.160e+01   5.254e+00   3.902e-03   2.528e+01   9.637e-02
-6.569e+00   8.199e+01   5.375e+00   3.272e-03   2.530e+01   2.222e-01
-6.458e+00   9.434e+01   5.492e+00   3.258e-03   2.533e+01   2.168e-01
-6.347e+00   1.092e+02   5.605e+00   3.319e-03   2.535e+01   1.250e-01
-6.236e+00   1.274e+02   5.713e+00   2.625e-03   2.531e+01   1.510e-01
-6.125e+00   1.500e+02   5.817e+00   1.079e-03   2.525e+01   2.580e-01