Folder: NIST_SRSW_Data/CH4_REF_ISOTHERMS/AIF

File: ch4_cubtc_300K.aif
data_CH4_CuBTC_300K
_exptl_date
_exptl_temperature 300
_adsnt_material_id CuBTC
_simltn_adsorbent_filename 'data.CuBTC_CaleroIV_rep111'
_units_temperature K
_units_fugacity BAR
_units_pressure BAR
_units_loading MOL-PER-KiloGM
_units_qst KiloJ-PER-MOL
_exptl_isotherm_type absolute
_exptl_adsorptive_name 'Methane'
_simltn_forcefield_adsorptive 'TraPPE CH4; 12ang linear-force shift'
_simltn_forcefield_adsorbent 'see adsorbent file'

loop_
_adsorp_fugacity
_adsorp_pressure
_adsorp_amount
_adsorp_amount_uncertainty
_adsorp_qst
_adsorp_qst_uncertainty
3.723e-04   3.723e-04   3.779e-04   1.130e-05   1.904e+01   5.062e-02
4.444e-04   4.444e-04   4.510e-04   1.348e-05   1.904e+01   5.059e-02
5.305e-04   5.305e-04   5.383e-04   1.608e-05   1.903e+01   5.057e-02
6.332e-04   6.332e-04   6.426e-04   1.916e-05   1.903e+01   5.053e-02
7.559e-04   7.558e-04   7.670e-04   2.284e-05   1.903e+01   5.049e-02
9.022e-04   9.022e-04   9.155e-04   2.722e-05   1.903e+01   5.045e-02
1.077e-03   1.077e-03   1.093e-03   3.242e-05   1.903e+01   5.039e-02
1.286e-03   1.285e-03   1.304e-03   3.860e-05   1.903e+01   5.032e-02
1.534e-03   1.534e-03   1.557e-03   4.594e-05   1.903e+01   5.024e-02
1.832e-03   1.832e-03   1.858e-03   5.464e-05   1.903e+01   5.015e-02
2.186e-03   2.186e-03   2.217e-03   6.494e-05   1.903e+01   5.004e-02
2.610e-03   2.610e-03   2.646e-03   7.712e-05   1.903e+01   4.991e-02
3.115e-03   3.115e-03   3.158e-03   9.151e-05   1.903e+01   4.975e-02
3.718e-03   3.718e-03   3.769e-03   1.085e-04   1.902e+01   4.956e-02
4.438e-03   4.438e-03   4.498e-03   1.284e-04   1.902e+01   4.934e-02
5.298e-03   5.298e-03   5.367e-03   1.517e-04   1.902e+01   4.908e-02
6.324e-03   6.324e-03   6.404e-03   1.789e-04   1.902e+01   4.877e-02
7.549e-03   7.548e-03   7.640e-03   2.106e-04   1.901e+01   4.841e-02
9.010e-03   9.010e-03   9.115e-03   2.472e-04   1.901e+01   4.799e-02
1.076e-02   1.076e-02   1.087e-02   2.894e-04   1.900e+01   4.750e-02
1.284e-02   1.284e-02   1.297e-02   3.377e-04   1.899e+01   4.694e-02
1.532e-02   1.532e-02   1.546e-02   3.925e-04   1.899e+01   4.629e-02
1.829e-02   1.829e-02   1.844e-02   4.542e-04   1.898e+01   4.556e-02
2.183e-02   2.183e-02   2.198e-02   5.231e-04   1.896e+01   4.474e-02
2.606e-02   2.606e-02   2.619e-02   5.992e-04   1.895e+01   4.384e-02
3.111e-02   3.111e-02   3.119e-02   6.825e-04   1.893e+01   4.288e-02
3.713e-02   3.713e-02   3.714e-02   7.727e-04   1.891e+01   4.189e-02
4.433e-02   4.433e-02   4.420e-02   8.694e-04   1.889e+01   4.093e-02
5.291e-02   5.291e-02   5.256e-02   9.723e-04   1.886e+01   4.005e-02
6.316e-02   6.316e-02   6.245e-02   1.081e-03   1.882e+01   3.934e-02
7.539e-02   7.539e-02   7.414e-02   1.195e-03   1.878e+01   3.887e-02
8.998e-02   8.999e-02   8.790e-02   1.316e-03   1.872e+01   3.865e-02
1.074e-01   1.074e-01   1.041e-01   1.444e-03   1.866e+01   3.861e-02
1.282e-01   1.282e-01   1.230e-01   1.583e-03   1.859e+01   3.851e-02
1.530e-01   1.531e-01   1.451e-01   1.743e-03   1.850e+01   3.797e-02
1.827e-01   1.827e-01   1.708e-01   1.941e-03   1.840e+01   3.646e-02
2.181e-01   2.181e-01   2.006e-01   2.203e-03   1.828e+01   3.336e-02
2.603e-01   2.603e-01   2.349e-01   2.557e-03   1.813e+01   2.810e-02
3.107e-01   3.108e-01   2.744e-01   3.009e-03   1.796e+01   2.027e-02
3.709e-01   3.710e-01   3.196e-01   3.516e-03   1.777e+01   1.036e-02
4.427e-01   4.429e-01   3.710e-01   3.975e-03   1.755e+01   8.363e-03
5.284e-01   5.287e-01   4.294e-01   4.247e-03   1.729e+01   2.130e-02
6.307e-01   6.311e-01   4.954e-01   4.216e-03   1.700e+01   3.437e-02
7.529e-01   7.534e-01   5.696e-01   3.875e-03   1.668e+01   4.245e-02
8.987e-01   8.995e-01   6.530e-01   3.380e-03   1.633e+01   4.199e-02
1.073e+00   1.074e+00   7.463e-01   2.992e-03   1.596e+01   3.292e-02
1.280e+00   1.282e+00   8.509e-01   2.787e-03   1.557e+01   2.244e-02
1.528e+00   1.531e+00   9.682e-01   2.453e-03   1.517e+01   2.205e-02
1.824e+00   1.828e+00   1.100e+00   1.606e-03   1.479e+01   2.401e-02
2.178e+00   2.183e+00   1.247e+00   2.936e-04   1.443e+01   2.025e-02
2.599e+00   2.606e+00   1.414e+00   1.353e-03   1.410e+01   2.239e-02
3.103e+00   3.113e+00   1.602e+00   1.904e-03   1.381e+01   3.204e-02
3.704e+00   3.718e+00   1.816e+00   1.479e-03   1.358e+01   3.416e-02
4.421e+00   4.441e+00   2.061e+00   2.022e-03   1.340e+01   2.692e-02
5.277e+00   5.306e+00   2.340e+00   3.044e-03   1.327e+01   1.832e-02
6.299e+00   6.340e+00   2.657e+00   4.818e-03   1.320e+01   1.183e-02
7.519e+00   7.577e+00   3.015e+00   5.633e-03   1.317e+01   9.833e-03
8.975e+00   9.059e+00   3.419e+00   5.389e-03   1.317e+01   8.954e-03
1.071e+01   1.083e+01   3.868e+00   6.049e-03   1.321e+01   9.185e-03
1.279e+01   1.296e+01   4.364e+00   6.465e-03   1.328e+01   9.621e-03
1.526e+01   1.551e+01   4.901e+00   3.526e-03   1.338e+01   2.832e-02
1.822e+01   1.857e+01   5.476e+00   1.620e-03   1.350e+01   2.329e-02
2.175e+01   2.225e+01   6.082e+00   4.709e-03   1.365e+01   8.262e-03
2.596e+01   2.667e+01   6.712e+00   5.273e-03   1.381e+01   2.190e-02
3.099e+01   3.200e+01   7.352e+00   7.667e-03   1.398e+01   5.731e-03
3.699e+01   3.844e+01   7.994e+00   6.748e-03   1.415e+01   1.378e-02
4.415e+01   4.623e+01   8.630e+00   7.131e-03   1.433e+01   1.306e-02
5.270e+01   5.566e+01   9.253e+00   7.858e-03   1.451e+01   3.046e-02
6.290e+01   6.713e+01   9.859e+00   6.877e-03   1.470e+01   2.255e-02
7.509e+01   8.109e+01   1.045e+01   5.264e-03   1.490e+01   3.251e-03
8.963e+01   9.812e+01   1.102e+01   6.307e-03   1.507e+01   2.659e-02
1.070e+02   1.189e+02   1.157e+01   8.190e-03   1.524e+01   3.912e-02
1.277e+02   1.442e+02   1.209e+01   6.861e-03   1.542e+01   2.424e-02
1.524e+02   1.749e+02   1.260e+01   5.771e-03   1.557e+01   2.154e-02
1.820e+02   2.115e+02   1.308e+01   5.040e-03   1.569e+01   2.299e-02
2.172e+02   2.546e+02   1.353e+01   4.423e-03   1.582e+01   2.393e-02
2.592e+02   3.040e+02   1.397e+01   4.589e-03   1.596e+01   3.013e-02
3.095e+02   3.595e+02   1.439e+01   6.051e-03   1.609e+01   3.737e-02
3.694e+02   4.205e+02   1.479e+01   8.556e-03   1.618e+01   3.808e-02
4.409e+02   4.866e+02   1.517e+01   1.042e-02   1.624e+01   2.837e-02
5.263e+02   5.572e+02   1.552e+01   8.417e-03   1.630e+01   4.306e-02
6.282e+02   6.319e+02   1.586e+01   4.450e-03   1.635e+01   6.616e-02
7.499e+02   7.102e+02   1.617e+01   4.689e-03   1.634e+01   6.324e-02
8.951e+02   7.919e+02   1.647e+01   4.505e-03   1.629e+01   3.873e-02
1.068e+03   8.765e+02   1.674e+01   3.739e-03   1.623e+01   4.074e-02
1.275e+03   9.640e+02   1.700e+01   3.782e-03   1.616e+01   6.075e-02
1.522e+03   1.054e+03   1.724e+01   3.806e-03   1.606e+01   5.742e-02
1.817e+03   1.147e+03   1.747e+01   4.622e-03   1.592e+01   2.316e-02
2.169e+03   1.241e+03   1.768e+01   4.614e-03   1.572e+01   1.089e-01
2.589e+03   1.338e+03   1.788e+01   4.124e-03   1.546e+01   1.721e-01
3.090e+03   1.437e+03   1.807e+01   3.793e-03   1.517e+01   1.554e-01
3.689e+03   1.538e+03   1.825e+01   3.636e-03   1.488e+01   8.061e-02
4.403e+03   1.640e+03   1.842e+01   3.404e-03   1.460e+01   7.192e-02
5.256e+03   1.744e+03   1.858e+01   3.248e-03   1.431e+01   1.451e-01
6.274e+03   1.850e+03   1.874e+01   4.015e-03   1.401e+01   1.724e-01
7.489e+03   1.958e+03   1.889e+01   5.472e-03   1.369e+01   1.634e-01
8.939e+03   2.067e+03   1.904e+01   5.881e-03   1.337e+01   1.545e-01
1.067e+04   2.177e+03   1.918e+01   4.412e-03   1.304e+01   1.506e-01
1.274e+04   2.289e+03   1.932e+01   2.047e-03   1.273e+01   1.352e-01
1.520e+04   2.402e+03   1.946e+01   1.567e-03   1.243e+01   1.424e-01

File: ch4_cubtc_350K.aif
data_CH4_CuBTC_350K
_exptl_date
_exptl_temperature 350
_adsnt_material_id CuBTC
_adsnt_filename 'data.CuBTC_CaleroIV_rep111'
_units_temperature K
_units_fugacity BAR
_units_pressure BAR
_units_loading MOL-PER-KiloGM
_units_qst KiloJ-PER-MOL
_exptl_isotherm_type absolute
_exptl_adsorptive_name 'Methane'
_forcefield_adsorptive 'TraPPE CH4; 12ang linear-force shift'
_forcefield_adsnt 'see adsorbent file'

loop_
_adsorp_fugacity
_adsorp_pressure
_adsorp_amount
_adsorp_amount_uncertainty
_adsorp_qst
_adsorp_qst_uncertainty
2.421e-03   2.420e-03   8.689e-04   4.602e-05   1.759e+01   2.026e-02
2.857e-03   2.856e-03   1.025e-03   5.420e-05   1.759e+01   2.027e-02
3.371e-03   3.370e-03   1.210e-03   6.381e-05   1.759e+01   2.028e-02
3.978e-03   3.976e-03   1.427e-03   7.510e-05   1.759e+01   2.030e-02
4.693e-03   4.691e-03   1.684e-03   8.834e-05   1.759e+01   2.032e-02
5.538e-03   5.536e-03   1.986e-03   1.039e-04   1.759e+01   2.034e-02
6.534e-03   6.532e-03   2.344e-03   1.220e-04   1.759e+01   2.037e-02
7.710e-03   7.707e-03   2.765e-03   1.433e-04   1.758e+01   2.041e-02
9.097e-03   9.093e-03   3.262e-03   1.681e-04   1.758e+01   2.045e-02
1.073e-02   1.073e-02   3.848e-03   1.969e-04   1.758e+01   2.051e-02
1.267e-02   1.266e-02   4.539e-03   2.305e-04   1.758e+01   2.059e-02
1.494e-02   1.494e-02   5.354e-03   2.694e-04   1.758e+01   2.069e-02
1.763e-02   1.763e-02   6.315e-03   3.143e-04   1.757e+01   2.081e-02
2.081e-02   2.080e-02   7.449e-03   3.659e-04   1.757e+01   2.097e-02
2.455e-02   2.454e-02   8.784e-03   4.251e-04   1.756e+01   2.117e-02
2.897e-02   2.895e-02   1.036e-02   4.925e-04   1.756e+01   2.142e-02
3.418e-02   3.416e-02   1.221e-02   5.687e-04   1.755e+01   2.175e-02
4.033e-02   4.031e-02   1.440e-02   6.544e-04   1.755e+01   2.216e-02
4.758e-02   4.756e-02   1.698e-02   7.497e-04   1.754e+01   2.267e-02
5.614e-02   5.612e-02   2.001e-02   8.547e-04   1.753e+01   2.329e-02
6.624e-02   6.622e-02   2.358e-02   9.688e-04   1.751e+01   2.405e-02
7.816e-02   7.813e-02   2.778e-02   1.091e-03   1.750e+01   2.496e-02
9.223e-02   9.219e-02   3.272e-02   1.220e-03   1.748e+01   2.602e-02
1.088e-01   1.088e-01   3.853e-02   1.352e-03   1.746e+01   2.723e-02
1.284e-01   1.284e-01   4.535e-02   1.484e-03   1.744e+01   2.859e-02
1.515e-01   1.515e-01   5.335e-02   1.613e-03   1.742e+01   3.006e-02
1.788e-01   1.787e-01   6.274e-02   1.733e-03   1.738e+01   3.158e-02
2.109e-01   2.109e-01   7.373e-02   1.839e-03   1.735e+01   3.309e-02
2.489e-01   2.488e-01   8.660e-02   1.926e-03   1.731e+01   3.446e-02
2.937e-01   2.936e-01   1.016e-01   1.989e-03   1.726e+01   3.552e-02
3.465e-01   3.464e-01   1.192e-01   2.025e-03   1.720e+01   3.603e-02
4.088e-01   4.088e-01   1.396e-01   2.035e-03   1.713e+01   3.569e-02
4.824e-01   4.823e-01   1.634e-01   2.027e-03   1.705e+01   3.410e-02
5.692e-01   5.691e-01   1.910e-01   2.026e-03   1.697e+01   3.085e-02
6.716e-01   6.716e-01   2.229e-01   2.076e-03   1.687e+01   2.556e-02
7.924e-01   7.924e-01   2.598e-01   2.218e-03   1.675e+01   1.815e-02
9.350e-01   9.351e-01   3.022e-01   2.454e-03   1.662e+01   9.942e-03
1.103e+00   1.103e+00   3.510e-01   2.716e-03   1.647e+01   1.063e-02
1.302e+00   1.302e+00   4.069e-01   2.892e-03   1.630e+01   2.181e-02
1.536e+00   1.537e+00   4.707e-01   2.869e-03   1.611e+01   3.350e-02
1.812e+00   1.813e+00   5.434e-01   2.594e-03   1.590e+01   4.196e-02
2.138e+00   2.140e+00   6.259e-01   2.127e-03   1.567e+01   4.488e-02
2.523e+00   2.526e+00   7.194e-01   1.655e-03   1.543e+01   4.176e-02
2.977e+00   2.981e+00   8.251e-01   1.363e-03   1.517e+01   3.451e-02
3.513e+00   3.518e+00   9.445e-01   1.319e-03   1.491e+01   2.668e-02
4.145e+00   4.152e+00   1.079e+00   2.010e-03   1.464e+01   2.130e-02
4.890e+00   4.901e+00   1.230e+00   3.703e-03   1.439e+01   1.965e-02
5.770e+00   5.785e+00   1.400e+00   5.794e-03   1.414e+01   2.107e-02
6.809e+00   6.830e+00   1.592e+00   7.370e-03   1.392e+01   2.236e-02
8.034e+00   8.063e+00   1.807e+00   7.517e-03   1.373e+01   2.153e-02
9.479e+00   9.520e+00   2.048e+00   5.994e-03   1.358e+01   2.280e-02
1.118e+01   1.124e+01   2.317e+00   3.899e-03   1.345e+01   2.608e-02
1.320e+01   1.328e+01   2.619e+00   2.447e-03   1.336e+01   2.431e-02
1.557e+01   1.568e+01   2.954e+00   9.257e-04   1.331e+01   1.868e-02
1.837e+01   1.852e+01   3.325e+00   2.955e-03   1.328e+01   1.265e-02
2.168e+01   2.189e+01   3.730e+00   5.125e-03   1.330e+01   8.874e-03
2.558e+01   2.587e+01   4.169e+00   4.725e-03   1.335e+01   1.322e-02
3.018e+01   3.058e+01   4.641e+00   2.340e-03   1.344e+01   1.729e-02
3.561e+01   3.616e+01   5.144e+00   1.831e-03   1.354e+01   1.649e-02
4.202e+01   4.278e+01   5.671e+00   3.258e-03   1.365e+01   6.570e-03
4.958e+01   5.063e+01   6.217e+00   3.363e-03   1.379e+01   1.842e-02
5.850e+01   5.993e+01   6.776e+00   2.769e-03   1.395e+01   2.718e-02
6.903e+01   7.098e+01   7.342e+00   2.377e-03   1.411e+01   2.109e-02
8.144e+01   8.408e+01   7.907e+00   4.256e-03   1.428e+01   1.655e-03
9.610e+01   9.964e+01   8.469e+00   4.619e-03   1.446e+01   6.313e-03
1.134e+02   1.181e+02   9.024e+00   3.828e-03   1.463e+01   1.016e-02
1.338e+02   1.399e+02   9.566e+00   2.540e-03   1.481e+01   1.295e-02
1.579e+02   1.656e+02   1.009e+01   1.197e-03   1.497e+01   2.927e-02
1.863e+02   1.957e+02   1.061e+01   2.592e-03   1.512e+01   1.408e-02
2.198e+02   2.308e+02   1.111e+01   3.441e-03   1.527e+01   9.365e-03
2.593e+02   2.711e+02   1.159e+01   3.501e-03   1.541e+01   7.912e-03
3.060e+02   3.169e+02   1.206e+01   6.671e-03   1.553e+01   1.397e-02
3.610e+02   3.682e+02   1.251e+01   1.098e-02   1.564e+01   1.496e-02
4.260e+02   4.249e+02   1.295e+01   1.251e-02   1.575e+01   2.045e-02
5.026e+02   4.867e+02   1.337e+01   9.159e-03   1.585e+01   3.156e-02
5.931e+02   5.535e+02   1.377e+01   4.879e-03   1.593e+01   4.211e-02
6.998e+02   6.247e+02   1.416e+01   3.358e-03   1.599e+01   3.546e-02
8.257e+02   7.001e+02   1.453e+01   4.105e-03   1.604e+01   1.678e-02
9.743e+02   7.795e+02   1.489e+01   4.407e-03   1.607e+01   2.486e-02
1.150e+03   8.624e+02   1.523e+01   2.864e-03   1.611e+01   4.344e-02
1.356e+03   9.486e+02   1.555e+01   2.220e-03   1.614e+01   5.733e-02
1.600e+03   1.038e+03   1.586e+01   3.541e-03   1.613e+01   5.633e-02
1.888e+03   1.130e+03   1.616e+01   4.334e-03   1.608e+01   2.738e-02
2.228e+03   1.225e+03   1.644e+01   5.824e-03   1.602e+01   2.404e-02
2.629e+03   1.323e+03   1.670e+01   6.929e-03   1.595e+01   6.063e-02
3.102e+03   1.423e+03   1.696e+01   7.138e-03   1.584e+01   8.487e-02
3.660e+03   1.525e+03   1.720e+01   6.747e-03   1.571e+01   1.066e-01
4.319e+03   1.630e+03   1.742e+01   6.719e-03   1.556e+01   1.194e-01
5.096e+03   1.736e+03   1.764e+01   7.671e-03   1.538e+01   9.718e-02
6.013e+03   1.845e+03   1.784e+01   8.688e-03   1.516e+01   9.201e-02
7.094e+03   1.955e+03   1.803e+01   7.855e-03   1.491e+01   1.735e-01
8.371e+03   2.068e+03   1.822e+01   4.778e-03   1.463e+01   2.543e-01
9.877e+03   2.182e+03   1.840e+01   2.305e-03   1.433e+01   2.747e-01
1.165e+04   2.297e+03   1.857e+01   4.409e-03   1.402e+01   2.288e-01
1.375e+04   2.415e+03   1.873e+01   5.767e-03   1.373e+01   1.481e-01
1.623e+04   2.534e+03   1.889e+01   4.745e-03   1.345e+01   1.015e-01
1.914e+04   2.654e+03   1.904e+01   3.482e-03   1.315e+01   1.454e-01
2.259e+04   2.776e+03   1.919e+01   5.757e-03   1.283e+01   1.908e-01
2.665e+04   2.899e+03   1.934e+01   8.384e-03   1.247e+01   1.867e-01
3.145e+04   3.023e+03   1.948e+01   9.586e-03   1.210e+01   1.457e-01

File: ch4_irmof1_300K.aif
data_CH4_IRMOF1_300K
_exptl_date
_exptl_temperature 300
_adsnt_material_id IRMOF-1
_adsnt_filename 'data.IRMOF1_mCBAC_rep111'
_units_temperature K
_units_fugacity BAR
_units_pressure BAR
_units_loading MOL-PER-KiloGM
_units_qst KiloJ-PER-MOL
_exptl_isotherm_type absolute
_exptl_adsorptive_name 'Methane'
_forcefield_adsorptive 'TraPPE CH4; 12ang linear-force shift'
_forcefield_adsnt 'see adsorbent file'

loop_
_adsorp_fugacity
_adsorp_pressure
_adsorp_amount
_adsorp_amount_uncertainty
_adsorp_qst
_adsorp_qst_uncertainty
3.723e-04   3.723e-04   1.235e-04   8.117e-07   9.970e+00   6.987e-03
4.444e-04   4.444e-04   1.474e-04   9.685e-07   9.970e+00   6.986e-03
5.305e-04   5.305e-04   1.759e-04   1.155e-06   9.970e+00   6.985e-03
6.332e-04   6.332e-04   2.100e-04   1.378e-06   9.970e+00   6.984e-03
7.559e-04   7.558e-04   2.506e-04   1.644e-06   9.970e+00   6.982e-03
9.022e-04   9.022e-04   2.992e-04   1.960e-06   9.970e+00   6.980e-03
1.077e-03   1.077e-03   3.571e-04   2.337e-06   9.970e+00   6.978e-03
1.286e-03   1.285e-03   4.263e-04   2.785e-06   9.970e+00   6.975e-03
1.534e-03   1.534e-03   5.088e-04   3.319e-06   9.970e+00   6.972e-03
1.832e-03   1.832e-03   6.074e-04   3.954e-06   9.970e+00   6.968e-03
2.186e-03   2.186e-03   7.250e-04   4.709e-06   9.970e+00   6.964e-03
2.610e-03   2.610e-03   8.654e-04   5.604e-06   9.970e+00   6.958e-03
3.115e-03   3.115e-03   1.033e-03   6.667e-06   9.970e+00   6.952e-03
3.718e-03   3.718e-03   1.233e-03   7.925e-06   9.970e+00   6.944e-03
4.438e-03   4.438e-03   1.472e-03   9.414e-06   9.970e+00   6.935e-03
5.298e-03   5.298e-03   1.757e-03   1.117e-05   9.970e+00   6.924e-03
6.324e-03   6.324e-03   2.097e-03   1.324e-05   9.970e+00   6.912e-03
7.549e-03   7.548e-03   2.504e-03   1.567e-05   9.970e+00   6.896e-03
9.010e-03   9.010e-03   2.989e-03   1.852e-05   9.970e+00   6.878e-03
1.076e-02   1.076e-02   3.567e-03   2.184e-05   9.970e+00   6.857e-03
1.284e-02   1.284e-02   4.259e-03   2.569e-05   9.970e+00   6.832e-03
1.532e-02   1.532e-02   5.084e-03   3.013e-05   9.971e+00   6.803e-03
1.829e-02   1.829e-02   6.069e-03   3.521e-05   9.971e+00   6.768e-03
2.183e-02   2.183e-02   7.245e-03   4.096e-05   9.971e+00   6.728e-03
2.606e-02   2.606e-02   8.649e-03   4.740e-05   9.971e+00   6.682e-03
3.111e-02   3.111e-02   1.033e-02   5.447e-05   9.972e+00   6.629e-03
3.713e-02   3.713e-02   1.233e-02   6.208e-05   9.972e+00   6.569e-03
4.433e-02   4.433e-02   1.472e-02   6.999e-05   9.973e+00   6.502e-03
5.291e-02   5.291e-02   1.757e-02   7.785e-05   9.973e+00   6.428e-03
6.316e-02   6.316e-02   2.098e-02   8.506e-05   9.974e+00   6.349e-03
7.539e-02   7.539e-02   2.505e-02   9.076e-05   9.975e+00   6.269e-03
8.998e-02   8.999e-02   2.992e-02   9.370e-05   9.976e+00   6.193e-03
1.074e-01   1.074e-01   3.573e-02   9.221e-05   9.977e+00   6.129e-03
1.282e-01   1.282e-01   4.266e-02   8.428e-05   9.978e+00   6.091e-03
1.530e-01   1.531e-01   5.096e-02   6.815e-05   9.979e+00   6.097e-03
1.827e-01   1.827e-01   6.086e-02   4.736e-05   9.981e+00   6.167e-03
2.181e-01   2.181e-01   7.270e-02   5.702e-05   9.983e+00   6.325e-03
2.603e-01   2.603e-01   8.684e-02   1.228e-04   9.985e+00   6.590e-03
3.107e-01   3.108e-01   1.037e-01   2.269e-04   9.987e+00   6.967e-03
3.709e-01   3.710e-01   1.239e-01   3.666e-04   9.990e+00   7.439e-03
4.427e-01   4.429e-01   1.480e-01   5.420e-04   9.993e+00   7.961e-03
5.284e-01   5.287e-01   1.768e-01   7.497e-04   9.997e+00   8.450e-03
6.307e-01   6.311e-01   2.111e-01   9.804e-04   1.000e+01   8.786e-03
7.529e-01   7.534e-01   2.520e-01   1.217e-03   1.001e+01   8.821e-03
8.987e-01   8.995e-01   3.008e-01   1.432e-03   1.001e+01   8.394e-03
1.073e+00   1.074e+00   3.589e-01   1.588e-03   1.002e+01   7.382e-03
1.280e+00   1.282e+00   4.280e-01   1.636e-03   1.003e+01   5.787e-03
1.528e+00   1.531e+00   5.104e-01   1.527e-03   1.004e+01   3.901e-03
1.824e+00   1.828e+00   6.083e-01   1.240e-03   1.005e+01   2.814e-03
2.178e+00   2.183e+00   7.247e-01   8.500e-04   1.006e+01   3.851e-03
2.599e+00   2.606e+00   8.631e-01   6.388e-04   1.008e+01   5.702e-03
3.103e+00   3.113e+00   1.027e+00   7.314e-04   1.010e+01   7.340e-03
3.704e+00   3.718e+00   1.222e+00   6.925e-04   1.012e+01   8.391e-03
4.421e+00   4.441e+00   1.453e+00   4.923e-04   1.014e+01   8.691e-03
5.277e+00   5.306e+00   1.726e+00   8.016e-04   1.018e+01   9.063e-03
6.299e+00   6.340e+00   2.047e+00   1.661e-03   1.021e+01   9.883e-03
7.519e+00   7.577e+00   2.425e+00   2.876e-03   1.026e+01   7.954e-03
8.975e+00   9.059e+00   2.868e+00   3.710e-03   1.032e+01   3.010e-03
1.071e+01   1.083e+01   3.384e+00   4.536e-03   1.039e+01   3.222e-03
1.279e+01   1.296e+01   3.983e+00   6.139e-03   1.047e+01   2.132e-03
1.526e+01   1.551e+01   4.672e+00   7.876e-03   1.056e+01   1.344e-02
1.822e+01   1.857e+01   5.458e+00   1.060e-02   1.067e+01   8.136e-03
2.175e+01   2.225e+01   6.339e+00   1.148e-02   1.081e+01   1.003e-02
2.596e+01   2.667e+01   7.312e+00   5.893e-03   1.097e+01   7.783e-03
3.099e+01   3.200e+01   8.374e+00   6.209e-03   1.116e+01   4.481e-03
3.699e+01   3.844e+01   9.514e+00   6.699e-03   1.138e+01   5.146e-03
4.415e+01   4.623e+01   1.070e+01   9.308e-03   1.163e+01   4.046e-03
5.270e+01   5.566e+01   1.192e+01   3.413e-03   1.190e+01   7.634e-03
6.290e+01   6.713e+01   1.313e+01   3.258e-03   1.218e+01   1.604e-03
7.509e+01   8.109e+01   1.432e+01   5.660e-03   1.246e+01   9.036e-03
8.963e+01   9.812e+01   1.547e+01   6.281e-03   1.275e+01   7.317e-03
1.070e+02   1.189e+02   1.656e+01   8.307e-03   1.302e+01   9.208e-03
1.277e+02   1.442e+02   1.760e+01   8.749e-03   1.327e+01   1.552e-02
1.524e+02   1.749e+02   1.857e+01   5.094e-03   1.351e+01   1.443e-02
1.820e+02   2.115e+02   1.947e+01   3.893e-03   1.372e+01   9.099e-03
2.172e+02   2.546e+02   2.031e+01   7.067e-03   1.388e+01   3.083e-03
2.592e+02   3.040e+02   2.110e+01   8.179e-03   1.400e+01   1.666e-02
3.095e+02   3.595e+02   2.184e+01   3.386e-03   1.413e+01   3.388e-02
3.694e+02   4.205e+02   2.252e+01   7.136e-03   1.424e+01   2.780e-02
4.409e+02   4.866e+02   2.317e+01   1.025e-02   1.429e+01   3.511e-02
5.263e+02   5.572e+02   2.377e+01   9.965e-03   1.432e+01   5.047e-02
6.282e+02   6.319e+02   2.435e+01   8.364e-03   1.433e+01   4.200e-02
7.499e+02   7.102e+02   2.489e+01   7.093e-03   1.430e+01   2.739e-02
8.951e+02   7.919e+02   2.541e+01   1.052e-02   1.426e+01   2.608e-02
1.068e+03   8.765e+02   2.590e+01   1.130e-02   1.421e+01   4.158e-02
1.275e+03   9.640e+02   2.637e+01   8.384e-03   1.415e+01   5.588e-02
1.522e+03   1.054e+03   2.683e+01   5.340e-03   1.408e+01   6.011e-02
1.817e+03   1.147e+03   2.727e+01   5.076e-03   1.401e+01   4.857e-02
2.169e+03   1.241e+03   2.770e+01   7.332e-03   1.393e+01   3.195e-02
2.589e+03   1.338e+03   2.812e+01   9.792e-03   1.385e+01   4.010e-02
3.090e+03   1.437e+03   2.853e+01   1.140e-02   1.378e+01   5.848e-02
3.689e+03   1.538e+03   2.893e+01   1.255e-02   1.371e+01   4.901e-02
4.403e+03   1.640e+03   2.933e+01   1.537e-02   1.366e+01   5.640e-02
5.256e+03   1.744e+03   2.972e+01   2.080e-02   1.361e+01   9.025e-02
6.274e+03   1.850e+03   3.011e+01   2.678e-02   1.358e+01   8.024e-02
7.489e+03   1.958e+03   3.049e+01   3.093e-02   1.356e+01   5.961e-02
8.939e+03   2.067e+03   3.087e+01   3.444e-02   1.353e+01   7.002e-02
1.067e+04   2.177e+03   3.124e+01   3.555e-02   1.349e+01   4.086e-02
1.274e+04   2.289e+03   3.160e+01   3.142e-02   1.348e+01   3.225e-02
1.520e+04   2.402e+03   3.195e+01   2.435e-02   1.347e+01   7.693e-02