Folder: NIST_SRSW_Data/CH4_REF_ISOTHERMS/AIF (part 2)

File: ch4_irmof1_350K.aif
data_CH4_IRMOF1_350K
_exptl_date
_exptl_temperature 350
_adsnt_material_id IRMOF-1
_adsnt_filename 'data.IRMOF1_mCBAC_rep111'
_units_temperature K
_units_fugacity BAR
_units_pressure BAR
_units_loading MOL-PER-KiloGM
_units_qst KiloJ-PER-MOL
_exptl_isotherm_type absolute
_exptl_adsorptive_name 'Methane'
_forcefield_adsorptive 'TraPPE CH4; 12ang linear-force shift'
_forcefield_adsnt 'see adsorbent file'

loop_
_adsorp_fugacity
_adsorp_pressure
_adsorp_amount
_adsorp_amount_uncertainty
_adsorp_qst
_adsorp_qst_uncertainty
2.421e-03   2.420e-03   4.594e-04   6.207e-06   9.940e+00   1.012e-02
2.857e-03   2.856e-03   5.420e-04   7.319e-06   9.940e+00   1.012e-02
3.371e-03   3.370e-03   6.396e-04   8.630e-06   9.940e+00   1.011e-02
3.978e-03   3.976e-03   7.546e-04   1.017e-05   9.940e+00   1.010e-02
4.693e-03   4.691e-03   8.904e-04   1.199e-05   9.940e+00   1.009e-02
5.538e-03   5.536e-03   1.051e-03   1.413e-05   9.940e+00   1.007e-02
6.534e-03   6.532e-03   1.240e-03   1.665e-05   9.940e+00   1.006e-02
7.710e-03   7.707e-03   1.463e-03   1.962e-05   9.941e+00   1.004e-02
9.097e-03   9.093e-03   1.726e-03   2.310e-05   9.941e+00   1.002e-02
1.073e-02   1.073e-02   2.036e-03   2.720e-05   9.941e+00   9.988e-03
1.267e-02   1.266e-02   2.403e-03   3.201e-05   9.941e+00   9.957e-03
1.494e-02   1.494e-02   2.835e-03   3.765e-05   9.941e+00   9.920e-03
1.763e-02   1.763e-02   3.345e-03   4.425e-05   9.941e+00   9.877e-03
2.081e-02   2.080e-02   3.947e-03   5.199e-05   9.941e+00   9.826e-03
2.455e-02   2.454e-02   4.657e-03   6.103e-05   9.941e+00   9.766e-03
2.897e-02   2.895e-02   5.495e-03   7.157e-05   9.941e+00   9.695e-03
3.418e-02   3.416e-02   6.484e-03   8.384e-05   9.942e+00   9.612e-03
4.033e-02   4.031e-02   7.651e-03   9.809e-05   9.942e+00   9.515e-03
4.758e-02   4.756e-02   9.028e-03   1.146e-04   9.942e+00   9.401e-03
5.614e-02   5.612e-02   1.065e-02   1.336e-04   9.943e+00   9.267e-03
6.624e-02   6.622e-02   1.257e-02   1.555e-04   9.943e+00   9.111e-03
7.816e-02   7.813e-02   1.483e-02   1.806e-04   9.943e+00   8.929e-03
9.223e-02   9.219e-02   1.750e-02   2.091e-04   9.944e+00   8.716e-03
1.088e-01   1.088e-01   2.065e-02   2.413e-04   9.945e+00   8.469e-03
1.284e-01   1.284e-01   2.436e-02   2.773e-04   9.945e+00   8.183e-03
1.515e-01   1.515e-01   2.875e-02   3.174e-04   9.946e+00   7.852e-03
1.788e-01   1.787e-01   3.392e-02   3.615e-04   9.947e+00   7.472e-03
2.109e-01   2.109e-01   4.003e-02   4.092e-04   9.949e+00   7.037e-03
2.489e-01   2.488e-01   4.723e-02   4.601e-04   9.950e+00   6.544e-03
2.937e-01   2.936e-01   5.573e-02   5.135e-04   9.952e+00   5.990e-03
3.465e-01   3.464e-01   6.575e-02   5.682e-04   9.953e+00   5.376e-03
4.088e-01   4.088e-01   7.758e-02   6.230e-04   9.955e+00   4.710e-03
4.824e-01   4.823e-01   9.154e-02   6.763e-04   9.958e+00   4.012e-03
5.692e-01   5.691e-01   1.080e-01   7.266e-04   9.960e+00   3.328e-03
6.716e-01   6.716e-01   1.274e-01   7.728e-04   9.963e+00   2.756e-03
7.924e-01   7.924e-01   1.503e-01   8.141e-04   9.967e+00   2.468e-03
9.350e-01   9.351e-01   1.772e-01   8.497e-04   9.970e+00   2.628e-03
1.103e+00   1.103e+00   2.090e-01   8.780e-04   9.975e+00   3.188e-03
1.302e+00   1.302e+00   2.464e-01   8.931e-04   9.980e+00   3.968e-03
1.536e+00   1.537e+00   2.904e-01   8.808e-04   9.985e+00   4.813e-03
1.812e+00   1.813e+00   3.422e-01   8.162e-04   9.992e+00   5.618e-03
2.138e+00   2.140e+00   4.031e-01   6.736e-04   1.000e+01   6.275e-03
2.523e+00   2.526e+00   4.746e-01   5.057e-04   1.001e+01   6.656e-03
2.977e+00   2.981e+00   5.587e-01   7.097e-04   1.002e+01   6.637e-03
3.513e+00   3.518e+00   6.576e-01   1.431e-03   1.004e+01   6.234e-03
4.145e+00   4.152e+00   7.737e-01   2.417e-03   1.005e+01   5.730e-03
4.890e+00   4.901e+00   9.101e-01   3.473e-03   1.007e+01   5.274e-03
5.770e+00   5.785e+00   1.070e+00   4.385e-03   1.010e+01   4.200e-03
6.809e+00   6.830e+00   1.257e+00   4.964e-03   1.013e+01   1.960e-03
8.034e+00   8.063e+00   1.475e+00   5.126e-03   1.016e+01   2.659e-03
9.479e+00   9.520e+00   1.729e+00   4.912e-03   1.020e+01   4.961e-03
1.118e+01   1.124e+01   2.023e+00   4.396e-03   1.024e+01   4.884e-03
1.320e+01   1.328e+01   2.364e+00   3.720e-03   1.030e+01   3.020e-03
1.557e+01   1.568e+01   2.760e+00   3.841e-03   1.036e+01   1.919e-03
1.837e+01   1.852e+01   3.215e+00   4.855e-03   1.043e+01   3.982e-03
2.168e+01   2.189e+01   3.735e+00   5.096e-03   1.051e+01   6.617e-03
2.558e+01   2.587e+01   4.322e+00   5.308e-03   1.060e+01   6.744e-03
3.018e+01   3.058e+01   4.980e+00   6.152e-03   1.071e+01   3.210e-03
3.561e+01   3.616e+01   5.713e+00   6.112e-03   1.084e+01   1.043e-02
4.202e+01   4.278e+01   6.518e+00   5.173e-03   1.099e+01   1.070e-02
4.958e+01   5.063e+01   7.392e+00   7.556e-03   1.115e+01   1.494e-03
5.850e+01   5.993e+01   8.327e+00   9.467e-03   1.134e+01   6.071e-03
6.903e+01   7.098e+01   9.311e+00   1.038e-02   1.153e+01   8.795e-03
8.144e+01   8.408e+01   1.033e+01   9.452e-03   1.174e+01   1.070e-02
9.610e+01   9.964e+01   1.137e+01   7.859e-03   1.197e+01   4.473e-03
1.134e+02   1.181e+02   1.242e+01   8.361e-03   1.221e+01   1.338e-02
1.338e+02   1.399e+02   1.346e+01   5.037e-03   1.245e+01   1.202e-02
1.579e+02   1.656e+02   1.447e+01   5.822e-03   1.269e+01   9.773e-03
1.863e+02   1.957e+02   1.546e+01   8.541e-03   1.292e+01   1.876e-02
2.198e+02   2.308e+02   1.641e+01   4.731e-03   1.315e+01   1.020e-02
2.593e+02   2.711e+02   1.731e+01   5.099e-03   1.334e+01   1.802e-02
3.060e+02   3.169e+02   1.817e+01   8.429e-03   1.352e+01   2.759e-02
3.610e+02   3.682e+02   1.899e+01   1.042e-02   1.369e+01   1.596e-02
4.260e+02   4.249e+02   1.977e+01   1.284e-02   1.382e+01   1.085e-02
5.026e+02   4.867e+02   2.050e+01   1.069e-02   1.394e+01   1.967e-02
5.931e+02   5.535e+02   2.120e+01   3.722e-03   1.404e+01   2.850e-02
6.998e+02   6.247e+02   2.186e+01   5.332e-03   1.412e+01   2.223e-02
8.257e+02   7.001e+02   2.249e+01   1.102e-02   1.417e+01   1.307e-02
9.743e+02   7.795e+02   2.309e+01   1.291e-02   1.420e+01   1.380e-02
1.150e+03   8.624e+02   2.365e+01   1.147e-02   1.418e+01   2.451e-02
1.356e+03   9.486e+02   2.419e+01   7.412e-03   1.416e+01   2.718e-02
1.600e+03   1.038e+03   2.471e+01   5.950e-03   1.414e+01   5.859e-02
1.888e+03   1.130e+03   2.521e+01   6.524e-03   1.411e+01   7.083e-02
2.228e+03   1.225e+03   2.569e+01   9.144e-03   1.406e+01   5.091e-02
2.629e+03   1.323e+03   2.615e+01   1.047e-02   1.399e+01   2.844e-02
3.102e+03   1.423e+03   2.659e+01   7.782e-03   1.391e+01   8.182e-02
3.660e+03   1.525e+03   2.703e+01   4.492e-03   1.383e+01   1.135e-01
4.319e+03   1.630e+03   2.745e+01   5.411e-03   1.373e+01   8.431e-02
5.096e+03   1.736e+03   2.786e+01   9.276e-03   1.360e+01   2.752e-02
6.013e+03   1.845e+03   2.826e+01   1.267e-02   1.348e+01   4.423e-02
7.094e+03   1.955e+03   2.865e+01   1.358e-02   1.337e+01   5.784e-02
8.371e+03   2.068e+03   2.904e+01   1.219e-02   1.329e+01   3.983e-02
9.877e+03   2.182e+03   2.942e+01   1.338e-02   1.322e+01   2.250e-02
1.165e+04   2.297e+03   2.979e+01   1.980e-02   1.316e+01   2.790e-02
1.375e+04   2.415e+03   3.015e+01   2.550e-02   1.310e+01   3.020e-02
1.623e+04   2.534e+03   3.051e+01   2.643e-02   1.305e+01   2.348e-02
1.914e+04   2.654e+03   3.087e+01   2.272e-02   1.298e+01   5.442e-02
2.259e+04   2.776e+03   3.122e+01   1.683e-02   1.289e+01   8.467e-02
2.665e+04   2.899e+03   3.157e+01   1.308e-02   1.281e+01   9.584e-02
3.145e+04   3.023e+03   3.191e+01   1.313e-02   1.275e+01   1.064e-01

File: ch4_uio66_300K.aif
data_CH4_UiO66_300K
_exptl_date
_exptl_temperature 300
_adsnt_material_id UiO-66
_simltn_adsorbent_filename 'data.UiO66_Snurr_rep222'
_units_temperature K
_units_fugacity BAR
_units_pressure BAR
_units_loading MOL-PER-KiloGM
_units_qst KiloJ-PER-MOL
_exptl_isotherm_type absolute
_exptl_adsorptive_name 'Methane'
_simltn_forcefield_adsorptive 'TraPPE CH4; 12ang linear-force shift'
_simltn_forcefield_adsorbent 'see adsorbent file'

loop_
_adsorp_fugacity
_adsorp_pressure
_adsorp_amount
_adsorp_amount_uncertainty
_adsorp_qst
_adsorp_qst_uncertainty
3.723e-04   3.723e-04   2.970e-04   8.111e-05   1.776e+01   5.980e-03
4.444e-04   4.444e-04   3.545e-04   9.655e-05   1.776e+01   5.974e-03
5.305e-04   5.305e-04   4.230e-04   1.149e-04   1.776e+01   5.967e-03
6.332e-04   6.332e-04   5.048e-04   1.365e-04   1.776e+01   5.958e-03
7.559e-04   7.558e-04   6.023e-04   1.622e-04   1.776e+01   5.948e-03
9.022e-04   9.022e-04   7.186e-04   1.925e-04   1.776e+01   5.935e-03
1.077e-03   1.077e-03   8.574e-04   2.283e-04   1.776e+01   5.920e-03
1.286e-03   1.285e-03   1.023e-03   2.703e-04   1.776e+01   5.902e-03
1.534e-03   1.534e-03   1.220e-03   3.195e-04   1.776e+01   5.879e-03
1.832e-03   1.832e-03   1.455e-03   3.771e-04   1.776e+01   5.851e-03
2.186e-03   2.186e-03   1.735e-03   4.441e-04   1.776e+01   5.817e-03
2.610e-03   2.610e-03   2.069e-03   5.217e-04   1.776e+01   5.773e-03
3.115e-03   3.115e-03   2.467e-03   6.111e-04   1.776e+01   5.718e-03
3.718e-03   3.718e-03   2.941e-03   7.134e-04   1.776e+01   5.647e-03
4.438e-03   4.438e-03   3.505e-03   8.295e-04   1.776e+01   5.555e-03
5.298e-03   5.298e-03   4.177e-03   9.600e-04   1.776e+01   5.435e-03
6.324e-03   6.324e-03   4.977e-03   1.105e-03   1.776e+01   5.278e-03
7.549e-03   7.548e-03   5.929e-03   1.265e-03   1.776e+01   5.072e-03
9.010e-03   9.010e-03   7.063e-03   1.437e-03   1.776e+01   4.805e-03
1.076e-02   1.076e-02   8.415e-03   1.620e-03   1.776e+01   4.464e-03
1.284e-02   1.284e-02   1.003e-02   1.809e-03   1.776e+01   4.043e-03
1.532e-02   1.532e-02   1.195e-02   2.000e-03   1.776e+01   3.553e-03
1.829e-02   1.829e-02   1.424e-02   2.185e-03   1.776e+01   3.048e-03
2.183e-02   2.183e-02   1.699e-02   2.356e-03   1.776e+01   2.676e-03
2.606e-02   2.606e-02   2.028e-02   2.500e-03   1.776e+01   2.682e-03
3.111e-02   3.111e-02   2.422e-02   2.607e-03   1.775e+01   3.203e-03
3.713e-02   3.713e-02   2.895e-02   2.667e-03   1.775e+01   4.082e-03
4.433e-02   4.433e-02   3.462e-02   2.676e-03   1.775e+01   5.057e-03
5.291e-02   5.291e-02   4.139e-02   2.652e-03   1.775e+01   5.881e-03
6.316e-02   6.316e-02   4.945e-02   2.634e-03   1.774e+01   6.312e-03
7.539e-02   7.539e-02   5.900e-02   2.667e-03   1.774e+01   6.135e-03
8.998e-02   8.999e-02   7.024e-02   2.758e-03   1.774e+01   5.252e-03
1.074e-01   1.074e-01   8.339e-02   2.858e-03   1.773e+01   3.883e-03
1.282e-01   1.282e-01   9.875e-02   2.912e-03   1.772e+01   2.823e-03
1.530e-01   1.531e-01   1.167e-01   2.923e-03   1.772e+01   2.980e-03
1.827e-01   1.827e-01   1.376e-01   3.010e-03   1.771e+01   4.010e-03
2.181e-01   2.181e-01   1.622e-01   3.375e-03   1.770e+01   5.160e-03
2.603e-01   2.603e-01   1.909e-01   3.898e-03   1.769e+01   4.805e-03
3.107e-01   3.108e-01   2.242e-01   4.183e-03   1.767e+01   2.893e-03
3.709e-01   3.710e-01   2.621e-01   4.001e-03   1.765e+01   8.110e-03
4.427e-01   4.429e-01   3.050e-01   3.054e-03   1.763e+01   1.468e-02
5.284e-01   5.287e-01   3.534e-01   1.666e-03   1.761e+01   1.653e-02
6.307e-01   6.311e-01   4.079e-01   9.746e-04   1.757e+01   1.225e-02
7.529e-01   7.534e-01   4.691e-01   3.210e-03   1.754e+01   8.264e-03
8.987e-01   8.995e-01   5.370e-01   5.285e-03   1.750e+01   1.379e-02
1.073e+00   1.074e+00   6.116e-01   5.519e-03   1.745e+01   1.868e-02
1.280e+00   1.282e+00   6.929e-01   3.971e-03   1.739e+01   6.083e-03
1.528e+00   1.531e+00   7.802e-01   2.903e-03   1.732e+01   1.357e-02
1.824e+00   1.828e+00   8.731e-01   3.227e-03   1.725e+01   1.007e-02
2.178e+00   2.183e+00   9.725e-01   3.333e-03   1.718e+01   2.008e-02
2.599e+00   2.606e+00   1.079e+00   4.778e-03   1.709e+01   2.157e-02
3.103e+00   3.113e+00   1.194e+00   3.799e-03   1.700e+01   2.308e-02
3.704e+00   3.718e+00   1.316e+00   2.429e-03   1.690e+01   6.600e-03
4.421e+00   4.441e+00   1.445e+00   5.491e-03   1.680e+01   1.684e-02
5.277e+00   5.306e+00   1.581e+00   5.804e-03   1.673e+01   1.428e-02
6.299e+00   6.340e+00   1.724e+00   4.250e-03   1.667e+01   8.566e-03
7.519e+00   7.577e+00   1.878e+00   3.096e-04   1.662e+01   1.887e-02
8.975e+00   9.059e+00   2.042e+00   1.540e-03   1.657e+01   1.818e-02
1.071e+01   1.083e+01   2.212e+00   8.420e-04   1.655e+01   1.894e-02
1.279e+01   1.296e+01   2.393e+00   2.355e-03   1.657e+01   1.359e-02
1.526e+01   1.551e+01   2.586e+00   3.728e-03   1.661e+01   2.300e-02
1.822e+01   1.857e+01   2.789e+00   1.562e-03   1.666e+01   1.597e-02
2.175e+01   2.225e+01   3.004e+00   1.610e-03   1.675e+01   2.579e-02
2.596e+01   2.667e+01   3.229e+00   2.826e-03   1.691e+01   2.004e-02
3.099e+01   3.200e+01   3.469e+00   3.115e-03   1.708e+01   2.879e-02
3.699e+01   3.844e+01   3.723e+00   1.946e-03   1.731e+01   4.119e-02
4.415e+01   4.623e+01   3.991e+00   1.958e-03   1.751e+01   2.995e-02
5.270e+01   5.566e+01   4.273e+00   2.793e-03   1.772e+01   3.468e-02
6.290e+01   6.713e+01   4.571e+00   3.341e-03   1.798e+01   2.565e-02
7.509e+01   8.109e+01   4.883e+00   2.712e-03   1.820e+01   3.692e-02
8.963e+01   9.812e+01   5.205e+00   3.712e-03   1.838e+01   4.189e-02
1.070e+02   1.189e+02   5.534e+00   3.114e-03   1.855e+01   4.108e-02
1.277e+02   1.442e+02   5.869e+00   6.064e-03   1.865e+01   5.314e-02
1.524e+02   1.749e+02   6.204e+00   6.257e-03   1.873e+01   4.281e-02
1.820e+02   2.115e+02   6.534e+00   4.118e-03   1.875e+01   2.649e-02
2.172e+02   2.546e+02   6.858e+00   4.958e-03   1.872e+01   7.935e-02
2.592e+02   3.040e+02   7.169e+00   3.693e-03   1.866e+01   2.600e-02
3.095e+02   3.595e+02   7.465e+00   3.217e-03   1.860e+01   1.223e-01
3.694e+02   4.205e+02   7.740e+00   3.444e-03   1.845e+01   1.066e-01
4.409e+02   4.866e+02   7.995e+00   5.693e-03   1.838e+01   7.725e-02
5.263e+02   5.572e+02   8.230e+00   1.724e-03   1.823e+01   1.101e-01
6.282e+02   6.319e+02   8.443e+00   6.163e-04   1.798e+01   6.267e-02
7.499e+02   7.102e+02   8.637e+00   1.755e-03   1.781e+01   5.458e-02
8.951e+02   7.919e+02   8.818e+00   2.400e-03   1.757e+01   7.909e-02
1.068e+03   8.765e+02   8.989e+00   5.651e-03   1.722e+01   3.706e-02
1.275e+03   9.640e+02   9.163e+00   5.583e-03   1.690e+01   2.896e-02
1.522e+03   1.054e+03   9.353e+00   2.648e-03   1.665e+01   1.588e-02
1.817e+03   1.147e+03   9.581e+00   9.818e-03   1.660e+01   4.102e-02
2.169e+03   1.241e+03   9.870e+00   1.355e-02   1.660e+01   3.610e-02
2.589e+03   1.338e+03   1.022e+01   1.076e-02   1.671e+01   1.855e-02
3.090e+03   1.437e+03   1.063e+01   1.600e-02   1.681e+01   1.112e-02
3.689e+03   1.538e+03   1.107e+01   1.764e-02   1.690e+01   4.084e-02
4.403e+03   1.640e+03   1.150e+01   1.104e-02   1.701e+01   7.078e-02
5.256e+03   1.744e+03   1.190e+01   1.232e-02   1.710e+01   4.853e-02
6.274e+03   1.850e+03   1.224e+01   2.199e-02   1.732e+01   4.644e-02
7.489e+03   1.958e+03   1.248e+01   1.583e-02   1.759e+01   6.254e-02
8.939e+03   2.067e+03   1.265e+01   1.050e-02   1.791e+01   6.066e-02
1.067e+04   2.177e+03   1.277e+01   8.651e-03   1.821e+01   7.106e-02
1.274e+04   2.289e+03   1.286e+01   5.798e-03   1.841e+01   8.034e-02
1.520e+04   2.402e+03   1.292e+01   5.219e-03   1.856e+01   1.065e-01

File: ch4_uio66_350K.aif
data_CH4_UiO66_350K
_exptl_date
_exptl_temperature 350
_adsnt_material_id UiO-66
_adsnt_filename 'data.UiO66_Snurr_rep222'
_units_temperature K
_units_fugacity BAR
_units_pressure BAR
_units_loading MOL_PER_KG
_units_qst KiloJ_PER_MOL
_exptl_isotherm_type absolute
_exptl_adsorptive_name 'Nitrogen'
_forcefield_adsorptive 'TraPPE CH4; 12ang linear-force shift'
_forcefield_adsnt 'see adsorbent file'

loop_
_adsorp_fugacity
_adsorp_pressure
_adsorp_amount
_adsorp_amount_uncertainty
_adsorp_qst
_adsorp_qst_uncertainty
2.421e-03   2.420e-03   7.709e-04   2.543e-05   1.781e+01   5.688e-03
2.857e-03   2.856e-03   9.091e-04   2.962e-05   1.781e+01   5.635e-03
3.371e-03   3.370e-03   1.072e-03   3.443e-05   1.781e+01   5.576e-03
3.978e-03   3.976e-03   1.264e-03   3.993e-05   1.781e+01   5.510e-03
4.693e-03   4.691e-03   1.490e-03   4.618e-05   1.781e+01   5.438e-03
5.538e-03   5.536e-03   1.756e-03   5.323e-05   1.781e+01   5.358e-03
6.534e-03   6.532e-03   2.069e-03   6.117e-05   1.781e+01   5.275e-03
7.710e-03   7.707e-03   2.438e-03   7.005e-05   1.781e+01   5.189e-03
9.097e-03   9.093e-03   2.871e-03   7.996e-05   1.781e+01   5.107e-03
1.073e-02   1.073e-02   3.381e-03   9.106e-05   1.781e+01   5.034e-03
1.267e-02   1.266e-02   3.979e-03   1.036e-04   1.781e+01   4.980e-03
1.494e-02   1.494e-02   4.682e-03   1.182e-04   1.781e+01   4.957e-03
1.763e-02   1.763e-02   5.507e-03   1.359e-04   1.781e+01   4.980e-03
2.081e-02   2.080e-02   6.473e-03   1.584e-04   1.781e+01   5.062e-03
2.455e-02   2.454e-02   7.605e-03   1.887e-04   1.781e+01   5.214e-03
2.897e-02   2.895e-02   8.929e-03   2.312e-04   1.780e+01   5.437e-03
3.418e-02   3.416e-02   1.048e-02   2.912e-04   1.780e+01   5.721e-03
4.033e-02   4.031e-02   1.229e-02   3.750e-04   1.780e+01   6.040e-03
4.758e-02   4.756e-02   1.440e-02   4.891e-04   1.780e+01   6.353e-03
5.614e-02   5.612e-02   1.686e-02   6.396e-04   1.780e+01   6.605e-03
6.624e-02   6.622e-02   1.974e-02   8.310e-04   1.780e+01   6.738e-03
7.816e-02   7.813e-02   2.311e-02   1.065e-03   1.779e+01   6.702e-03
9.223e-02   9.219e-02   2.705e-02   1.338e-03   1.779e+01   6.480e-03
1.088e-01   1.088e-01   3.167e-02   1.637e-03   1.779e+01   6.103e-03
1.284e-01   1.284e-01   3.711e-02   1.941e-03   1.779e+01   5.666e-03
1.515e-01   1.515e-01   4.353e-02   2.216e-03   1.778e+01   5.294e-03
1.788e-01   1.787e-01   5.111e-02   2.417e-03   1.778e+01   5.077e-03
2.109e-01   2.109e-01   6.007e-02   2.504e-03   1.778e+01   5.015e-03
2.489e-01   2.488e-01   7.061e-02   2.457e-03   1.777e+01   5.046e-03
2.937e-01   2.936e-01   8.297e-02   2.320e-03   1.776e+01   5.076e-03
3.465e-01   3.464e-01   9.737e-02   2.217e-03   1.776e+01   4.935e-03
4.088e-01   4.088e-01   1.141e-01   2.270e-03   1.775e+01   4.315e-03
4.824e-01   4.823e-01   1.335e-01   2.412e-03   1.773e+01   2.901e-03
5.692e-01   5.691e-01   1.560e-01   2.464e-03   1.772e+01   1.057e-03
6.716e-01   6.716e-01   1.819e-01   2.453e-03   1.770e+01   2.860e-03
7.924e-01   7.924e-01   2.115e-01   2.615e-03   1.768e+01   5.823e-03
9.350e-01   9.351e-01   2.448e-01   2.848e-03   1.766e+01   7.867e-03
1.103e+00   1.103e+00   2.823e-01   2.604e-03   1.764e+01   7.664e-03
1.302e+00   1.302e+00   3.246e-01   1.913e-03   1.761e+01   5.392e-03
1.536e+00   1.537e+00   3.725e-01   1.410e-03   1.757e+01   1.087e-03
1.812e+00   1.813e+00   4.263e-01   8.400e-04   1.753e+01   6.321e-03
2.138e+00   2.140e+00   4.861e-01   1.045e-03   1.748e+01   1.036e-02
2.523e+00   2.526e+00   5.518e-01   1.287e-03   1.742e+01   1.193e-02
2.977e+00   2.981e+00   6.229e-01   2.684e-03   1.736e+01   1.450e-02
3.513e+00   3.518e+00   6.996e-01   4.733e-03   1.729e+01   1.394e-02
4.145e+00   4.152e+00   7.829e-01   5.988e-03   1.722e+01   5.511e-03
4.890e+00   4.901e+00   8.728e-01   5.053e-03   1.714e+01   2.480e-02
5.770e+00   5.785e+00   9.689e-01   2.846e-03   1.706e+01   1.637e-02
6.809e+00   6.830e+00   1.072e+00   2.242e-03   1.696e+01   1.078e-02
8.034e+00   8.063e+00   1.182e+00   2.923e-03   1.686e+01   1.469e-02
9.479e+00   9.520e+00   1.300e+00   3.186e-03   1.676e+01   1.187e-02
1.118e+01   1.124e+01   1.423e+00   3.825e-03   1.668e+01   2.437e-02
1.320e+01   1.328e+01   1.552e+00   4.091e-03   1.659e+01   1.591e-02
1.557e+01   1.568e+01   1.687e+00   2.826e-03   1.652e+01   2.146e-02
1.837e+01   1.852e+01   1.830e+00   2.408e-03   1.646e+01   2.206e-02
2.168e+01   2.189e+01   1.981e+00   2.278e-03   1.643e+01   9.844e-03
2.558e+01   2.587e+01   2.140e+00   3.075e-03   1.640e+01   1.021e-02
3.018e+01   3.058e+01   2.305e+00   3.979e-03   1.639e+01   1.954e-02
3.561e+01   3.616e+01   2.479e+00   3.447e-03   1.638e+01   2.652e-02
4.202e+01   4.278e+01   2.660e+00   1.447e-03   1.639e+01   2.282e-02
4.958e+01   5.063e+01   2.849e+00   1.373e-03   1.644e+01   2.122e-02
5.850e+01   5.993e+01   3.048e+00   1.695e-03   1.651e+01   1.411e-02
6.903e+01   7.098e+01   3.253e+00   2.858e-03   1.660e+01   1.882e-02
8.144e+01   8.408e+01   3.467e+00   1.584e-03   1.669e+01   3.297e-02
9.610e+01   9.964e+01   3.691e+00   1.384e-03   1.683e+01   9.968e-03
1.134e+02   1.181e+02   3.923e+00   1.848e-03   1.700e+01   1.904e-02
1.338e+02   1.399e+02   4.165e+00   9.049e-04   1.717e+01   2.713e-02
1.579e+02   1.656e+02   4.419e+00   1.848e-03   1.738e+01   3.833e-02
1.863e+02   1.957e+02   4.684e+00   2.321e-03   1.758e+01   4.289e-02
2.198e+02   2.308e+02   4.957e+00   2.759e-03   1.779e+01   2.314e-02
2.593e+02   2.711e+02   5.240e+00   5.402e-03   1.801e+01   2.411e-02
3.060e+02   3.169e+02   5.531e+00   5.710e-03   1.819e+01   4.899e-02
3.610e+02   3.682e+02   5.828e+00   4.330e-03   1.838e+01   6.236e-02
4.260e+02   4.249e+02   6.130e+00   4.195e-03   1.852e+01   6.716e-02
5.026e+02   4.867e+02   6.432e+00   4.099e-03   1.865e+01   3.953e-02
5.931e+02   5.535e+02   6.732e+00   1.405e-03   1.871e+01   5.538e-02
6.998e+02   6.247e+02   7.028e+00   2.258e-03   1.876e+01   6.376e-02
8.257e+02   7.001e+02   7.316e+00   3.374e-03   1.877e+01   4.411e-02
9.743e+02   7.795e+02   7.589e+00   3.156e-03   1.872e+01   5.189e-02
1.150e+03   8.624e+02   7.847e+00   9.802e-04   1.869e+01   3.835e-02
1.356e+03   9.486e+02   8.088e+00   3.913e-03   1.854e+01   6.259e-02
1.600e+03   1.038e+03   8.311e+00   2.267e-03   1.842e+01   2.058e-02
1.888e+03   1.130e+03   8.518e+00   1.192e-03   1.816e+01   8.851e-02
2.228e+03   1.225e+03   8.708e+00   4.212e-03   1.784e+01   2.895e-02
2.629e+03   1.323e+03   8.891e+00   3.865e-03   1.756e+01   4.543e-02
3.102e+03   1.423e+03   9.073e+00   2.833e-03   1.714e+01   1.499e-02
3.660e+03   1.525e+03   9.262e+00   3.465e-03   1.677e+01   6.721e-02
4.319e+03   1.630e+03   9.470e+00   3.610e-03   1.660e+01   3.856e-02
5.096e+03   1.736e+03   9.716e+00   6.613e-03   1.651e+01   5.526e-02
6.013e+03   1.845e+03   1.001e+01   8.685e-03   1.653e+01   2.956e-02
7.094e+03   1.955e+03   1.034e+01   4.894e-03   1.662e+01   4.390e-02
8.371e+03   2.068e+03   1.072e+01   1.345e-02   1.677e+01   4.019e-02
9.877e+03   2.182e+03   1.112e+01   5.547e-03   1.690e+01   2.665e-02
1.165e+04   2.297e+03   1.150e+01   6.219e-03   1.704e+01   2.124e-02
1.375e+04   2.415e+03   1.186e+01   1.174e-02   1.720e+01   6.144e-02
1.623e+04   2.534e+03   1.216e+01   1.186e-02   1.743e+01   5.762e-02
1.914e+04   2.654e+03   1.240e+01   1.633e-02   1.772e+01   6.796e-02
2.259e+04   2.776e+03   1.257e+01   8.971e-03   1.809e+01   8.479e-02
2.665e+04   2.899e+03   1.269e+01   3.131e-03   1.838e+01   1.238e-01
3.145e+04   3.023e+03   1.279e+01   3.358e-03   1.861e+01   8.863e-02